accel_x,accel_y,fsr_1,gyro_z,fsr_3,fsr_2,ultrasonic_1,ultrasonic_2,ultrasonic_3,gyro_x,accel_z,gyro_y,ultrasonic_4
-12940,-8472,0,-701,38073,32567,1210.103,2334.381,1208.11,5241,6460,119,2329.364
-13008,-8380,0,-718,36024,30695,1209.88,2330.79,1207.852,5305,6416,94,2328.54
-12916,-8448,0,-704,38041,33112,1210.017,2332.904,1208.007,5425,6396,40,2328.368
-12916,-8412,0,-645,37641,32663,1209.966,2332.01,1207.835,5304,6588,74,2329.003
-12856,-8536,0,-726,35240,30999,1210.017,2334.072,1207.869,5269,6544,146,2330.567
-13072,-8508,0,-667,37817,33208,1209.983,2332.182,1207.801,5199,6536,111,2328.952
-13060,-8504,0,-668,37913,33384,1210.034,2333.076,1207.99,5264,6548,91,2330.172
-12988,-8504,0,-671,35512,30999,1209.983,2333.23,1207.835,5231,6708,102,2330.979
-12940,-8400,0,-694,38041,36104,1209.931,2335.155,1207.973,5284,6516,57,2330.172
-12976,-8504,0,-667,38153,33288,1209.914,2335.533,1207.955,5220,6576,169,2331.46
-12988,-8444,0,-670,36072,31207,1209.966,2331.821,1207.887,5239,6588,100,2329.209
-12992,-8488,0,-696,38265,34088,1209.966,2334.261,1208.127,5220,6580,56,2328.746
-12892,-8456,0,-676,38585,34088,1209.897,2332.801,1208.024,5249,6696,161,2328.076
-12928,-8472,65535,-669,35640,32663,1209.828,2335.429,1208.247,5215,6492,133,2331.048
-13008,-8444,0,-695,38377,34280,1209.897,2333.78,1207.99,5281,6548,110,2330.0
-12912,-8460,0,-683,38585,34472,1210.052,2334.605,1208.196,5222,6576,104,2329.553
-12844,-8388,0,-686,36328,32503,1209.966,2332.732,1208.179,5232,6552,110,2331.426
-12876,-8416,0,-652,38697,34552,1209.948,2334.674,1208.333,5259,6452,66,2330.55
-12924,-8456,0,-647,38697,34648,1209.828,2332.869,1208.041,5248,6504,127,2328.66
-13028,-8504,0,-668,36776,32487,1209.931,2331.752,1208.144,5250,6488,136,2327.766
-12984,-8504,0,-657,38665,34712,1209.759,2332.148,1208.247,5223,6428,111,2327.268
-12956,-8352,0,-679,38905,34616,1209.811,2331.684,1208.093,5266,6476,93,2328.625
-12916,-8568,0,-678,36584,32519,1209.88,2331.237,1208.076,5244,6528,112,2327.56
-12968,-8444,0,-652,38393,36856,1209.931,2332.113,1207.921,5194,6484,68,2326.821
-12944,-8424,0,-644,38713,33848,1210.017,2331.443,1208.076,5159,6536,123,2327.423
-12964,-8404,0,-690,36472,32263,1210.0,2332.045,1208.093,5213,6496,140,2327.68
-12936,-8492,0,-698,39401,34600,1210.052,2331.856,1208.213,5202,6464,139,2327.096
-12860,-8528,0,-679,39017,34744,1210.052,2331.512,1208.127,5200,6620,133,2327.509
-12896,-8564,0,-730,36889,32599,1210.086,2331.409,1208.024,5281,6660,119,2327.474
-13024,-8428,0,-692,39145,34792,1209.897,2331.873,1208.024,5239,6432,106,2327.32
-12924,-8472,0,-668,39161,34808,1210.034,2331.632,1207.955,5264,6540,93,2327.783
-12888,-8520,0,-689,36953,32759,1209.914,2331.357,1207.869,5275,6512,114,2327.045
-12996,-8452,0,-654,39225,34968,1209.845,2331.684,1208.024,5271,6604,99,2327.457
-12908,-8408,0,-682,38841,35848,1209.794,2331.615,1208.093,5185,6524,110,2327.44
-13032,-8516,0,-675,36712,33256,1209.742,2331.254,1208.007,5210,6520,114,2327.062
-13064,-8536,0,-679,39161,35112,1209.983,2332.045,1208.058,5234,6388,128,2326.718
-13076,-8488,0,-675,39289,34936,1209.966,2330.945,1208.093,5202,6656,88,2327.148
-13068,-8396,0,-736,36953,34488,1209.777,2331.134,1208.041,5303,6488,144,2327.01
-12988,-8388,0,-652,39161,37145,1209.845,2331.735,1208.763,5100,6440,88,2327.131
-13020,-8424,0,-681,39065,38057,1209.914,2331.014,1208.557,5158,6548,136,2327.457
-12848,-8528,0,-558,37881,34296,1209.948,2330.979,1208.299,4818,6476,18,2326.856
-13008,-8436,0,-708,39257,34888,1209.897,2331.581,1208.11,5294,6588,138,2327.406
-13024,-8408,0,-682,39257,35048,1209.777,2331.168,1208.161,5227,6572,155,2326.942
-12920,-8480,0,-671,37081,32007,1209.966,2331.77,1208.161,5240,6476,115,2326.787
-13000,-8456,0,-674,39289,35064,1209.931,2331.684,1208.282,5262,6532,96,2326.684
-12944,-8548,0,-651,39401,35128,1209.966,2331.392,1208.368,5251,6556,87,2326.615
-12976,-8568,65535,-625,36584,33048,1209.914,2331.048,1208.024,5209,6772,101,2326.529
-12920,-8500,0,-681,39721,35160,1210.137,2331.409,1208.282,5229,6736,143,2326.546
-12940,-8492,0,-665,39961,35400,1210.0,2330.584,1207.955,5192,6484,151,2326.856
-12876,-8496,0,-648,37529,34664,1210.052,2330.928,1208.076,5183,6616,109,2326.168
-12924,-8508,0,-699,39689,35000,1209.966,2331.701,1208.127,5255,6552,145,2326.323
-12868,-8536,0,-713,39721,35080,1210.103,2331.151,1208.041,5248,6480,109,2326.976
-12940,-8448,0,-679,37673,33400,1210.052,2331.409,1208.041,5184,6540,118,2327.32
-12960,-8392,0,-646,39689,35272,1209.897,2332.027,1208.041,5206,6592,103,2327.732
-12968,-8460,0,-655,40009,35288,1210.0,2331.203,1208.213,5216,6564,150,2327.663
-12924,-8412,0,-644,37641,33096,1209.863,2331.065,1208.144,5155,6416,175,2328.058
-12988,-8484,0,-704,39961,35080,1209.88,2331.701,1208.127,5170,6384,83,2326.77
-13084,-8476,0,-675,39929,35352,1209.966,2331.271,1207.904,5225,6420,125,2326.89
-12884,-8392,0,-637,37833,33384,1209.966,2330.808,1207.973,5222,6292,99,2326.804
-12936,-8496,0,-662,39881,35480,1209.948,2331.392,1207.99,5172,6464,86,2326.684
-12984,-8476,0,-672,39961,37033,1209.811,2330.894,1207.869,5284,6484,54,2327.491
-13016,-8456,0,-697,37385,34808,1210.103,2331.271,1207.99,5256,6472,41,2326.323
-12848,-8592,0,-708,40345,35928,1209.88,2331.752,1207.955,5188,6664,44,2326.392
-13008,-8368,0,-658,40745,36472,1209.88,2332.062,1208.127,4993,6484,182,2327.302
-12896,-8476,0,-715,37049,32920,1210.017,2331.34,1207.801,4953,6572,238,2328.454
-12872,-8452,0,-698,39193,35032,1209.983,2333.316,1207.99,5107,6544,204,2329.691
-12980,-8460,0,-696,39193,35080,1210.086,2333.66,1208.024,5281,6404,97,2328.505
-12932,-8496,0,-678,37353,33080,1209.948,2332.526,1208.024,5244,6512,101,2330.034
-12952,-8440,0,-644,40937,34872,1209.897,2332.302,1208.213,5190,6612,177,2328.471
-13016,-8524,0,-715,41242,31063,1210.0,2331.684,1208.144,5121,6404,139,2328.23
-12984,-8540,0,-756,37897,28967,1209.948,2332.079,1208.093,5383,6552,135,110.1718
-12840,-8472,0,-753,40473,30583,1210.137,2334.055,1208.041,5252,6572,140,110.2405
-12964,-8492,0,-571,40057,34648,1209.948,2331.615,1208.093,5022,6496,4,93.76289
-12828,-8500,0,-640,36440,33544,1209.863,2331.667,1208.024,4906,6640,131,2326.563
-12884,-8484,0,-735,41562,33032,1209.794,2332.096,1208.058,5420,6604,210,2326.89
-13008,-8540,0,-652,44250,33256,1209.88,2330.928,1208.11,4897,6376,-182,2327.148
-12900,-8456,0,-767,37161,34072,1209.828,2330.911,1208.23,5487,6628,85,2327.234
-12956,-8516,0,-773,38697,35336,1209.948,2331.546,1208.093,5494,6472,-7,2326.959
-12844,-8560,0,-686,38937,35832,1209.897,2331.237,1207.835,5259,6444,89,2329.57
-12916,-8504,0,-699,36136,32583,1209.948,2332.217,1207.955,5223,6412,115,2327.371
-12856,-8476,0,-666,38937,35416,1209.828,2330.103,1208.127,5263,6564,117,2321.581
-12932,-8324,0,-694,39177,35608,1210.069,2327.835,1208.144,5285,6476,82,2323.282
-12980,-8452,65535,-717,36360,34072,1210.017,2327.818,1208.161,5263,6524,106,2322.045
-12948,-8488,0,-660,39193,34040,1210.103,2328.265,1208.058,5285,6604,107,2321.426
-12888,-8524,0,-703,39177,34744,1210.069,2327.371,1208.161,5239,6472,107,2321.375
-12960,-8448,0,-681,37161,34728,1210.052,2327.732,1207.887,5197,6600,121,2320.945
-12872,-8516,0,-645,39673,35128,1209.88,2327.646,1208.11,4994,6440,188,2321.46
-12888,-8488,0,-699,39673,35240,1209.914,2327.113,1208.076,5202,6632,113,2321.237
-12988,-8404,0,-666,37449,33288,1209.931,2327.285,1208.076,5232,6604,93,2321.718
-13028,-8460,0,-693,39673,35416,1209.914,2328.11,1208.007,5238,6476,126,2321.804
-12952,-8468,0,-646,39865,37641,1209.914,2327.577,1207.99,5175,6604,71,2321.546
-12872,-8424,0,-657,37465,35448,1209.863,2326.735,1208.024,5261,6548,46,2321.151
-12968,-8540,0,-530,39865,35400,1209.863,2327.783,1208.041,5066,6500,104,2320.722
-13052,-8400,0,-582,39705,35352,1209.914,2332.251,1208.041,5209,6468,118,2331.254
-12988,-8484,0,-538,37529,33704,1209.983,2332.354,1208.024,4970,6700,272,2327.062
-12980,-8436,0,-669,39689,35672,1210.052,2332.44,1208.041,5254,6616,115,2330.086
-12952,-8444,0,-685,39689,35896,1210.24,2330.894,1207.852,5289,6420,90,2327.423
-12996,-8484,0,-638,37641,33848,1210.172,2331.151,1208.11,5150,6560,48,2324.76
-12984,-8572,0,-671,39801,36024,1210.137,2328.436,1208.007,5221,6504,128,2322.131
-12968,-8480,0,-695,39993,35368,1210.069,2329.227,1207.887,5194,6504,158,2323.917
-12780,-8380,0,-687,37737,33464,1210.189,2327.715,1208.093,5274,6508,152,2322.629
-12928,-8484,0,-663,39833,35672,1209.966,2327.852,1207.938,5242,6636,119,2321.289
-12916,-8456,0,-663,39513,35592,1209.983,2327.44,1207.955,5208,6480,121,2322.698
-12900,-8404,0,-675,37641,33448,1209.931,2328.179,1207.887,5255,6448,102,2323.11
-12988,-8496,0,-677,39529,35800,1209.794,2328.11,1207.973,5241,6420,108,2322.406
-12880,-8500,0,-649,39577,35752,1209.897,2327.526,1208.161,5229,6520,111,2322.079
-12920,-8416,0,-678,37657,33688,1209.845,2328.368,1208.144,5239,6548,91,2323.23
-12956,-8472,0,-663,39209,35624,1210.103,2328.488,1208.024,5222,6616,112,2322.027
-13020,-8528,0,-680,39897,35816,1210.0,2327.491,1208.024,5229,6548,98,2321.426
-12964,-8508,0,-687,37241,33752,1209.983,2327.285,1208.093,5239,6452,86,2321.478
-12988,-8556,0,-677,39673,35704,1209.931,2327.457,1208.007,5220,6484,87,2322.234
-12896,-8432,0,-682,39753,35736,1210.052,2327.371,1208.058,5216,6676,86,2322.406
-12924,-8468,0,-662,37561,32872,1209.759,2327.285,1208.11,5250,6632,134,2322.423
-12996,-8508,0,-655,39689,35752,1209.897,2327.904,1208.093,5233,6644,119,2321.77
-12904,-8508,0,-672,39769,35752,1210.137,2327.423,1208.161,5211,6684,136,2321.512
-12956,-8400,0,-689,37049,33160,1209.983,2332.869,1208.127,5241,6488,117,2330.361
-12968,-8408,0,-719,39897,35944,1209.914,2328.814,1208.127,5267,6480,94,2322.732
-12924,-8408,0,-690,39929,36024,1209.948,2326.598,1208.179,5297,6528,163,2320.189
-12952,-8532,0,-662,36824,35464,1209.914,2333.058,1208.076,5237,6496,77,2329.381
-12936,-8404,0,-701,39833,35992,1209.897,2334.433,1207.99,5199,6316,82,2329.519
-12920,-8456,0,-699,39785,35848,1210.034,2332.217,1208.144,5261,6584,99,2327.44
-12904,-8460,0,-673,37721,35624,1210.103,2330.584,1208.179,5241,6568,99,2328.024
-12872,-8404,0,-676,39801,35640,1209.966,2332.44,1208.093,5219,6568,119,2328.282
-13088,-8512,0,-651,39945,37161,1210.0,2330.55,1207.887,5185,6456,154,2329.158
-12856,-8596,0,-692,37113,33816,1209.966,2331.409,1208.041,5246,6504,187,2328.179
-12956,-8488,0,-649,39017,36616,1209.948,2331.701,1208.041,5269,6340,72,2328.299
-12920,-8436,0,-704,39289,35320,1210.034,2332.371,1208.058,5212,6548,129,2327.32
-12968,-8520,0,-688,37161,33592,1209.863,2330.309,1208.093,5338,6688,27,2328.711
-12948,-8460,0,-688,39481,35752,1209.983,2333.351,1207.99,5244,6560,98,2329.88
-13004,-8412,0,-684,39529,35800,1210.069,2331.976,1207.955,5247,6496,90,2328.797
-12988,-8460,0,-718,37545,33944,1210.137,2331.581,1207.99,5257,6440,131,2327.113
-12928,-8500,0,-687,39481,35752,1210.137,2331.959,1207.99,5240,6488,128,2326.942
-12920,-8392,0,-690,39545,35928,1210.0,2330.894,1208.058,5255,6448,128,2328.419
-13024,-8468,0,-659,37465,33848,1209.948,2330.498,1207.835,5259,6392,119,2327.474
-13020,-8568,0,-703,39737,35992,1210.103,2332.44,1208.024,5262,6424,122,2329.45
-12968,-8472,0,-664,39785,36200,1210.155,2331.752,1208.11,5221,6560,116,2328.729
-12956,-8364,0,-670,37481,33976,1210.034,2330.756,1207.973,5259,6664,111,2326.512
-12896,-8468,0,-675,40153,36216,1210.258,2333.265,1208.058,5206,6432,109,2327.045
-12972,-8412,0,-673,39801,36120,1210.223,2331.804,1208.093,5238,6576,117,2328.316
-12900,-8508,0,-664,37641,34008,1210.017,2332.182,1208.179,5229,6480,106,2327.543
-13052,-8492,0,-660,39689,36136,1210.155,2330.997,1208.076,5181,6612,136,2326.959
-12964,-8388,0,-675,39769,36104,1210.052,2330.584,1208.144,5221,6672,110,2327.56
-13004,-8464,0,-663,37641,34024,1210.034,2331.237,1208.076,5238,6600,133,2327.148
-12996,-8500,0,-664,39785,36296,1209.948,2331.89,1208.265,5244,6588,101,2327.732
-12952,-8432,0,-675,39913,36184,1210.017,2330.12,1208.591,5224,6372,128,2327.56
-13028,-8448,0,-685,37641,34056,1210.052,2331.357,1208.093,5241,6656,97,2325.997
-13004,-8336,0,-684,39929,36232,1210.034,2333.333,1208.041,5232,6396,133,2328.78
-12952,-8436,0,-689,39945,36616,1210.034,2331.409,1208.11,5275,6572,96,2328.385
-13044,-8452,0,-672,37689,33704,1210.189,2329.777,1208.093,5210,6432,123,2326.392
-13112,-8528,0,-704,39945,36584,1210.12,2330.155,1207.921,5264,6568,107,2324.88
-12952,-8492,0,-670,39705,36392,1210.069,2329.777,1208.35,5234,6508,134,2326.306
-12928,-8448,0,-651,36824,34280,1210.103,2329.467,1208.11,5243,6584,93,2325.876
-13072,-8472,0,-666,39977,36600,1210.103,2329.966,1208.574,5262,6600,79,2325.722
-12948,-8484,0,-656,40089,36728,1209.794,2329.845,1208.574,5219,6620,99,2324.863
-12996,-8460,0,-683,37897,36616,1210.069,2329.794,1208.522,5242,6612,103,2326.512
-12940,-8508,0,-664,40089,36536,1210.017,2330.395,1208.385,5217,6596,145,2326.048
-12952,-8484,0,-706,39993,36648,1210.069,2330.894,1208.076,5275,6360,104,2326.375
-12944,-8476,0,-685,39865,36536,1210.034,2330.395,1208.024,5216,6504,117,2325.412
-12960,-8460,0,-703,40201,36776,1209.948,2331.649,1208.144,5219,6548,106,2325.756
-12900,-8480,0,-678,40217,36873,1210.017,2330.859,1208.265,5207,6660,110,2325.997
-12868,-8428,0,-673,38073,34744,1210.017,2329.399,1208.024,5210,6568,147,2326.667
-12896,-8404,0,-673,40217,36921,1209.948,2330.618,1208.196,5218,6468,89,2326.203
-12988,-8416,0,-678,40249,36792,1209.897,2329.983,1208.093,5234,6624,116,2326.22
-12908,-8428,0,-681,37897,34744,1209.966,2330.653,1208.076,5191,6472,111,2327.268
-13004,-8484,0,-693,40201,36937,1209.88,2331.478,1207.973,5219,6520,128,2327.783
-12940,-8488,0,-678,40249,36792,1210.034,2331.976,1207.904,5189,6496,119,2327.852
-12984,-8412,0,-676,38153,34584,1209.983,2331.46,1207.973,5234,6564,103,2327.835
-13028,-8448,0,-686,39993,36808,1209.897,2330.894,1207.921,5250,6444,108,2326.512
-12972,-8408,0,-667,39689,36953,1209.983,2330.756,1208.144,5200,6496,122,2326.375
-13036,-8364,0,-677,38105,34648,1210.0,2330.756,1208.024,5273,6492,109,2326.563
-12916,-8364,0,-678,40201,37081,1210.086,2331.684,1208.007,5244,6416,93,2326.048
-12912,-8444,0,-666,40185,36664,1209.914,2330.326,1208.076,5245,6464,113,2326.46
-12912,-8492,0,-691,38233,34712,1209.948,2331.065,1207.869,5236,6592,116,2326.375
-12888,-8552,0,-673,40201,36873,1209.983,2330.412,1208.11,5219,6640,122,2326.495
-12780,-8480,0,-686,40249,36905,1209.983,2330.172,1208.058,5241,6568,113,2329.038
-12940,-8380,0,-686,38361,34840,1209.983,2330.447,1207.99,5250,6628,134,2326.89
-13024,-8320,0,-693,40409,36824,1209.931,2330.309,1207.938,5250,6544,114,2326.357
-12944,-8444,0,-692,40713,36905,1209.914,2329.725,1208.093,5243,6620,99,2326.014
-12916,-8340,0,-691,38297,34920,1209.966,2330.429,1208.299,5198,6476,97,2326.942
-13004,-8428,0,-672,40409,36921,1210.12,2331.065,1208.093,5232,6616,117,2324.811
-12968,-8472,0,-679,40553,37049,1209.983,2329.863,1208.058,5261,6536,106,2325.945
-12916,-8504,0,-667,37897,34424,1209.966,2329.88,1208.058,5227,6612,136,2325.172
-12976,-8480,0,-735,40377,36568,1210.034,2331.787,1208.161,5275,6488,85,2325.842
-12916,-8564,0,-649,40473,36472,1209.948,2330.309,1208.127,5236,6552,133,2325.206
-13072,-8564,0,-658,36985,31735,1210.017,2329.897,1208.179,5238,6572,91,2326.306
-13072,-8472,0,-675,40505,34680,1209.931,2330.395,1208.024,5326,6452,79,2325.533
-12924,-8444,0,-641,40617,34856,1209.845,2329.674,1208.076,5366,6556,21,2326.357
-12964,-8348,65535,-670,37673,33432,1209.966,2330.498,1208.007,5376,6396,49,2327.646
-12872,-8456,0,-692,40713,34968,1209.966,2330.447,1208.058,5183,6508,117,2326.117
-12960,-8496,0,-669,40729,35048,1210.034,2330.378,1208.093,5244,6468,86,2325.55
-12940,-8476,0,-666,38873,35032,1209.931,2330.017,1208.041,5207,6556,107,2326.701
-12988,-8460,0,-680,40633,35352,1210.069,2332.062,1207.887,5238,6524,106,2327.457
-13012,-8400,0,-696,40601,35256,1210.034,2330.292,1208.007,5238,6548,127,2325.756
-12960,-8464,0,-707,40489,49147,1209.966,2330.034,1208.196,5176,6508,130,2326.1
-12932,-8516,0,-664,40681,35448,1210.0,2331.014,1208.144,5205,6512,138,2326.22
-12992,-8472,0,-698,40713,35592,1209.931,2330.275,1208.024,5225,6636,153,2327.526
-13080,-8500,0,-675,38441,33320,1209.828,2330.997,1208.076,5235,6588,138,2327.921
-12936,-8456,0,-686,40505,35672,1210.034,2331.804,1208.024,5251,6516,112,2327.131
-12980,-8496,0,-710,40553,35544,1210.069,2330.069,1208.127,5237,6516,109,2327.869
-12848,-8496,0,-672,38009,33720,1209.931,2330.636,1207.99,5245,6724,92,2327.079
-12940,-8384,0,-682,40313,35608,1209.914,2331.409,1208.127,5241,6528,101,2327.44
-12852,-8428,0,-661,40569,35576,1209.914,2330.911,1207.973,5213,6484,108,2328.54
-13000,-8424,0,-696,38745,33352,1209.966,2331.838,1208.23,5222,6460,107,2328.23
-12888,-8496,0,-660,40633,35448,1209.897,2331.392,1208.041,5207,6492,114,2326.529
-12972,-8500,0,-713,40697,35576,1210.0,2330.481,1208.076,5258,6332,75,2327.302
-12984,-8456,0,-652,38153,33496,1209.931,2330.859,1208.196,5158,6524,94,2326.598
-12888,-8492,0,-677,40457,35560,1209.931,2332.027,1207.99,5196,6380,128,2328.505
-12824,-8452,0,-697,40537,35624,1210.0,2331.34,1208.093,5198,6400,120,2328.746
-13016,-8444,0,-664,38249,33544,1210.103,2331.907,1208.058,5209,6432,82,2328.471
-12976,-8496,0,-704,40729,35592,1210.034,2333.196,1207.955,5238,6456,145,2328.763
-12924,-8372,0,-675,40553,35688,1209.966,2331.495,1207.955,5252,6692,80,2327.457
-13064,-8428,0,-676,38441,33784,1209.966,2331.117,1207.904,5209,6560,124,2327.904
-12888,-8512,0,-695,40441,35816,1210.12,2330.928,1207.921,5302,6468,89,2327.165
-12960,-8492,0,-690,40441,35640,1209.948,2330.017,1207.921,5229,6520,130,2328.076
-12952,-8452,0,-691,38425,33800,1210.034,2330.567,1207.869,5275,6524,108,2327.886
-12956,-8468,0,-678,40713,35592,1210.0,2332.44,1208.024,5254,6384,107,2327.01
-12940,-8396,0,-650,40361,35768,1210.052,2331.392,1207.904,5228,6612,125,2327.698
-12960,-8468,0,-648,38505,32743,1210.0,2331.168,1207.955,5196,6564,129,2327.938
-13008,-8464,0,-656,40441,35800,1210.034,2331.546,1207.973,5230,6576,97,2326.873
-12996,-8488,0,-666,40249,35704,1210.172,2330.052,1207.955,5264,6520,91,2326.495
-13004,-8436,65535,-682,37625,33992,1210.034,2330.464,1207.869,5262,6304,96,2326.289
-12928,-8456,0,-672,40889,35768,1209.966,2331.168,1207.835,5227,6548,133,2326.701
-12920,-8516,0,-679,40665,35896,1210.017,2329.811,1208.007,5173,6604,123,2326.478
-12904,-8468,0,-638,38569,35512,1210.034,2330.344,1207.99,5219,6512,93,2326.1
-12968,-8372,0,-668,40713,35848,1209.983,2330.258,1208.007,5234,6408,130,2326.134
-12908,-8480,0,-663,40713,35864,1209.966,2330.756,1207.921,5278,6640,118,2327.182
-12956,-8444,0,-678,40121,35832,1210.052,2330.086,1207.921,5208,6660,110,2326.065
-13024,-8500,0,-655,40281,35944,1210.0,2330.206,1207.766,5206,6568,90,2325.876
-12960,-8428,0,-726,40441,36152,1210.017,2329.845,1207.955,5304,6564,86,2325.687
-12876,-8488,0,-684,40729,34264,1210.017,2329.433,1207.99,5209,6392,103,2324.124
-12852,-8484,0,-693,40729,35112,1209.966,2329.57,1208.024,5302,6564,125,2324.003
-12944,-8512,0,-724,40745,34744,1210.017,2329.57,1207.887,5236,6468,138,2324.708
-12880,-8556,0,-721,38633,32599,1209.88,2329.914,1207.869,5107,6620,113,2324.278
-12900,-8436,0,-689,40633,34920,1209.966,2327.302,1208.041,5116,6576,167,2320.997
-13024,-8464,0,-675,40633,35320,1210.017,2328.591,1208.024,5246,6440,114,2323.299
-13004,-8548,0,-651,38233,33032,1210.103,2327.938,1208.007,5196,6496,119,2323.986
-13036,-8384,0,-650,40713,35304,1210.069,2331.752,1208.024,5236,6404,138,2328.608
-12952,-8488,0,-645,40681,35432,1209.914,2329.828,1208.041,5230,6452,99,2324.57
-12920,-8440,0,-665,38393,33320,1209.948,2328.522,1207.904,5235,6484,64,2322.594
-12936,-8540,0,-652,40729,35288,1210.103,2332.423,1208.024,5255,6576,129,2327.869
-12988,-8504,0,-713,40857,35560,1209.914,2327.955,1207.887,5273,6456,144,2321.1
-12904,-8372,0,-723,38761,34840,1209.983,2331.392,1207.852,5292,6508,47,2325.739
-12844,-8496,0,-638,40633,37785,1209.811,2330.103,1207.835,5170,6384,31,2325.275
-12920,-8608,0,-775,40489,36504,1210.052,2329.966,1208.11,5461,6604,270,2326.134
-12908,-8380,0,-702,37641,33512,1210.034,2329.863,1208.058,5232,6468,132,2327.027
-12968,-8492,0,-706,39913,35336,1209.897,2330.361,1207.818,5241,6556,137,2326.289
-12960,-8468,0,-690,40169,35544,1210.052,2327.354,1208.161,5260,6516,86,2321.856
-12936,-8400,0,-708,38057,33528,1209.948,2328.179,1208.265,5257,6572,111,2322.783
-12932,-8472,0,-678,40201,35800,1210.0,2328.316,1208.11,5217,6628,127,2321.942
-12976,-8464,0,-659,40105,35608,1209.914,2326.512,1208.058,5213,6592,143,2321.821
-12992,-8500,0,-680,38137,33368,1210.0,2326.306,1207.904,5208,6492,159,2320.24
-12984,-8480,0,-643,39881,35672,1210.052,2326.735,1208.058,5241,6524,169,2320.481
-12852,-8424,0,-681,40201,35880,1210.034,2326.976,1208.161,5274,6296,81,2320.12
-13008,-8524,0,-684,38105,32920,1209.845,2326.271,1208.024,5196,6588,140,2320.0
-13116,-8440,0,-671,40329,35864,1209.948,2326.065,1208.144,5282,6508,71,2319.244
-13020,-8512,0,-671,40297,36088,1209.897,2325.601,1208.11,5270,6540,91,2317.629
-13036,-8472,65535,-685,37401,34312,1209.88,2325.67,1208.007,5231,6676,119,2318.866
-12936,-8356,0,-703,40441,36024,1209.931,2325.962,1207.938,5266,6528,18,2317.062
-12960,-8592,0,-673,40281,36024,1210.0,2325.223,1207.955,5232,6476,105,2316.512
-13016,-8400,0,-666,38153,36056,1210.052,2325.034,1207.921,5246,6520,127,2315.653
-13024,-8380,0,-670,40569,36104,1210.103,2332.543,1208.505,5293,6376,77,2328.488
-12868,-8416,0,-690,40217,35880,1209.983,2330.911,1208.093,5245,6516,140,2326.478
-13024,-8500,0,-692,39801,65535,1210.069,2329.003,1208.127,5237,6640,65,2323.986
-12996,-8512,0,-666,40057,34136,1210.0,2327.783,1207.99,5296,6440,118,2321.838
-12980,-8444,0,-678,39977,34584,1209.897,2326.512,1208.058,5258,6492,102,2319.295
-13008,-8472,0,-670,40057,34472,1209.931,2326.375,1207.973,5240,6484,119,2321.495
-12980,-8428,0,-671,40489,34968,1209.948,2326.701,1208.007,5202,6608,147,2318.66
-12996,-8476,0,-690,40505,35032,1209.914,2326.821,1207.869,5270,6560,140,2318.144
-12856,-8444,0,-695,38073,32856,1209.931,2326.546,1207.938,5265,6512,59,2319.708
-12928,-8476,0,-695,40217,35176,1209.931,2327.079,1207.921,5240,6608,123,2318.316
-12908,-8488,0,-682,40361,35192,1209.983,2327.406,1207.955,5223,6540,111,2322.337
-12992,-8424,0,-699,38169,33224,1210.0,2327.388,1208.024,5250,6556,73,2321.667
-13020,-8428,0,-710,40345,35096,1210.0,2327.835,1207.904,5282,6564,106,2321.598
-12988,-8392,0,-667,40313,35208,1209.948,2327.388,1207.955,5219,6364,119,2320.997
-12916,-8464,0,-661,38201,33336,1209.794,2327.388,1207.921,5271,6552,107,2320.979
-13012,-8428,0,-690,40281,35192,1209.897,2328.11,1207.835,5193,6528,116,2321.306
-12872,-8452,0,-642,40201,35256,1209.966,2327.337,1207.68,5218,6468,139,2322.268
-12916,-8440,0,-666,38169,33016,1209.897,2327.131,1207.887,5223,6552,95,2321.598
-12936,-8440,0,-679,40617,35080,1209.983,2328.179,1207.973,5241,6572,106,2321.787
-12948,-8520,0,-679,40313,35320,1209.88,2327.388,1208.471,5227,6488,117,2321.443
-12880,-8452,0,-657,38105,33288,1210.086,2327.646,1207.835,5242,6560,135,2321.426
-12888,-8424,0,-647,39865,35512,1210.017,2327.783,1207.99,5223,6500,91,2321.787
-12936,-8432,0,-668,40233,35320,1209.931,2327.629,1207.852,5235,6612,105,2322.32
-12996,-8444,0,-641,38329,33368,1209.983,2327.302,1208.076,5268,6300,119,2321.838
-13024,-8516,0,-560,40201,36104,1209.983,2326.804,1208.007,5078,6660,138,2319.467
-12896,-8484,0,-685,40345,34680,1210.137,2331.976,1207.973,5256,6716,153,2328.522
-13020,-8512,0,-690,38073,32423,1210.223,2330.103,1207.904,5223,6524,132,2324.983
-12968,-8376,0,-702,40313,35928,1210.052,2330.172,1208.127,5289,6560,73,2326.77
-12920,-8456,0,-687,40521,35592,1210.069,2329.656,1208.007,5266,6636,111,2326.409
-12904,-8396,0,-698,37481,33240,1210.172,2330.103,1207.783,5229,6480,117,2325.275
-12976,-8452,0,-658,40633,36088,1210.0,2329.777,1207.869,5215,6496,94,2325.756
-12960,-8436,0,-684,40441,35848,1210.137,2330.12,1207.904,5282,6516,60,2325.447
-12944,-8456,0,-675,37897,35320,1210.103,2329.502,1207.852,5218,6544,123,2326.392
-12968,-8436,0,-678,40665,35928,1210.034,2330.687,1207.904,5231,6680,128,2325.997
-12996,-8492,0,-686,40665,35800,1210.172,2329.76,1207.835,5275,6712,94,2327.68
-13072,-8392,0,-681,38761,35800,1210.155,2330.103,1207.766,5236,6612,121,2325.481
-12932,-8428,0,-669,40617,36008,1210.12,2330.12,1207.801,5249,6520,89,2327.113
-12980,-8468,0,-659,40713,35960,1210.086,2330.052,1207.783,5246,6532,119,2326.1
-13024,-8396,0,-662,40201,35704,1210.258,2330.069,1207.783,5250,6628,122,2326.065
-12896,-8436,0,-643,40345,35928,1210.155,2330.687,1207.698,5212,6528,126,2327.251
-12924,-8380,0,-674,40713,35992,1210.086,2329.57,1207.973,5250,6524,121,2325.137
-12920,-8448,0,-666,49147,36008,1210.103,2330.069,1208.058,5225,6524,112,2326.581
-12960,-8412,0,-660,40409,36024,1210.0,2330.034,1207.835,5249,6532,141,2325.601
-13000,-8424,0,-702,40425,35992,1210.137,2329.433,1207.887,5246,6428,129,2326.203
-13004,-8424,0,-673,38153,34056,1210.0,2329.364,1207.818,5253,6472,100,2326.014
-12988,-8460,0,-687,40457,36104,1210.275,2330.704,1207.646,5190,6548,88,2325.825
-13000,-8388,0,-675,40441,36104,1210.172,2329.656,1207.973,5261,6640,112,2326.752
-13000,-8528,0,-668,38329,33880,1210.189,2329.467,1207.973,5232,6444,126,2325.894
-12956,-8408,0,-699,40361,36088,1210.206,2330.533,1208.041,5286,6528,108,2327.096
-12964,-8504,0,-683,40473,36424,1210.189,2329.605,1208.024,5359,6700,64,2326.873
-12992,-8412,0,-689,37945,33912,1209.983,2330.309,1207.904,5254,6616,109,2326.22
-12960,-8360,0,-710,40345,36120,1209.88,2330.859,1207.938,5254,6536,88,2327.663
-12972,-8496,0,-684,40633,36296,1210.223,2330.052,1207.869,5248,6540,120,2326.512
-13056,-8524,0,-677,38329,34040,1210.155,2330.567,1207.869,5247,6472,110,2326.701
-12920,-8424,0,-688,40681,36184,1209.983,2330.601,1207.904,5213,6500,95,2325.722
-13020,-8448,0,-685,40633,36264,1210.017,2329.399,1207.904,5242,6408,106,2325.756
-12936,-8472,0,-676,38489,34152,1210.103,2330.155,1208.127,5209,6656,125,2325.79
-12900,-8424,0,-677,40489,36360,1210.103,2329.948,1208.058,5272,6572,128,2324.914
-13008,-8464,0,-676,40537,36376,1210.069,2329.691,1207.766,5201,6544,144,2325.601
-12900,-8392,0,-664,38201,34536,1210.137,2329.57,1207.835,5221,6616,109,2325.292
-12976,-8420,0,-666,40633,36376,1210.017,2330.034,1207.818,5244,6580,114,2326.168
-13116,-8368,0,-667,40761,36360,1209.966,2329.502,1207.938,5217,6548,117,2326.787
-13068,-8464,0,-654,37945,33624,1210.017,2328.625,1207.938,5282,6576,76,2325.533
-12940,-8460,0,-646,40713,36440,1209.983,2329.674,1207.921,5203,6616,132,2325.223
-12916,-8404,0,-655,40601,36440,1209.845,2329.158,1207.818,5240,6440,130,2325.155
-13008,-8492,0,-659,37369,34424,1210.052,2329.519,1207.698,5259,6524,84,2325.498
-12984,-8452,0,-667,40553,36536,1210.103,2330.137,1207.801,5257,6552,107,2326.186
-12932,-8436,0,-677,40681,36536,1210.12,2329.416,1207.818,5223,6616,103,2326.735
-12864,-8444,0,-669,38393,36216,1210.12,2329.141,1207.835,5245,6476,81,2325.653
-13004,-8416,0,-679,40393,36376,1210.206,2329.828,1207.732,5238,6468,142,2324.553
-12932,-8384,0,-670,40457,36376,1210.034,2329.261,1207.749,5237,6412,149,2324.261
-12948,-8540,0,-643,40457,36344,1210.034,2329.106,1207.715,5242,6452,85,2324.708
-12984,-8552,0,-686,40473,36312,1210.12,2329.347,1207.715,5240,6500,130,2325.034
-12904,-8500,0,-680,40761,36472,1210.137,2329.021,1207.766,5220,6532,99,2325.997
-12904,-8456,0,-666,40281,36600,1210.172,2330.429,1208.007,5255,6476,97,2327.062
-12956,-8464,0,-683,40713,36344,1209.863,2330.309,1207.973,5225,6616,123,2325.515
-12948,-8508,0,-687,40697,36200,1210.12,2329.811,1207.818,5270,6552,112,2326.134
-12896,-8472,0,-695,40553,36360,1210.155,2330.481,1207.99,5189,6440,109,2325.395
-12948,-8460,0,-658,40697,36360,1210.017,2330.447,1207.869,5201,6572,104,2326.563
-13000,-8436,0,-693,40697,36760,1210.137,2329.983,1207.973,5271,6476,111,2326.546
-12912,-8432,0,-699,38361,35192,1209.948,2329.227,1208.007,5261,6488,126,2325.12
-13088,-8412,0,-631,40681,36248,1209.966,2330.395,1208.024,5076,6600,161,2325.773
-13052,-8444,0,-674,40681,36648,1210.103,2329.536,1207.955,5220,6656,123,2326.1
-12868,-8464,0,-710,38329,34568,1210.052,2330.137,1208.076,5189,6592,124,2326.168
-12980,-8488,0,-688,40409,36648,1210.24,2330.017,1207.938,5241,6516,95,2324.983
-12996,-8432,0,-657,40569,36792,1210.12,2330.017,1207.955,5255,6372,76,2327.096
-13112,-8480,0,-673,38617,34760,1210.086,2330.017,1207.955,5250,6396,100,2326.083
-12948,-8392,0,-665,40201,36840,1210.103,2330.704,1207.921,5234,6616,122,2327.234
-12956,-8460,0,-652,40681,36889,1210.103,2333.746,1207.749,5224,6604,148,2328.883
-13064,-8396,0,-664,38761,34728,1210.137,2331.237,1207.715,5229,6492,107,2329.295
-13028,-8456,0,-703,40729,36664,1210.052,2332.268,1207.749,5279,6576,108,2330.069
-12908,-8460,0,-681,40713,36632,1210.155,2332.852,1207.783,5258,6500,72,2328.402
-13012,-8512,0,-670,38633,34568,1210.103,2331.186,1207.766,5210,6464,155,2328.024
-12992,-8432,0,-684,40569,36648,1210.137,2332.113,1207.835,5291,6604,62,2327.852
-12964,-8372,0,-671,40905,36889,1210.137,2329.57,1207.835,5246,6628,130,2326.77
-12916,-8456,0,-673,38265,33592,1210.223,2331.323,1207.835,5257,6700,111,2326.752
-12912,-8480,0,-657,40553,36792,1210.12,2330.825,1207.698,5250,6500,140,2326.529
-13020,-8412,0,-689,40713,36776,1210.155,2329.003,1207.869,5252,6492,89,2324.038
-13044,-8396,0,-674,37657,34328,1209.931,2328.832,1207.749,5247,6468,119,2324.794
-13000,-8432,0,-665,40825,36905,1210.361,2329.381,1207.801,5275,6416,93,2324.674
-12988,-8492,0,-645,40473,36776,1210.069,2329.038,1207.715,5236,6612,127,2325.739
-12884,-8472,65535,-684,37977,35288,1210.12,2329.295,1207.904,5192,6524,118,2325.172
-13012,-8468,0,-679,40665,36728,1210.137,2330.258,1207.698,5206,6616,130,2325.464
-12884,-8380,0,-676,40713,36696,1210.223,2329.399,1207.938,5222,6460,85,2325.395
-13028,-8368,0,-687,39737,36536,1210.189,2329.691,1207.749,5207,6684,121,2326.117
-12956,-8508,0,-674,40601,36616,1210.137,2330.773,1207.732,5211,6680,114,2327.99
-12960,-8420,0,-669,40809,36889,1210.172,2330.997,1207.852,5212,6468,119,2326.306
-12968,-8388,0,-711,40441,36616,1210.0,2331.134,1207.852,5238,6624,124,2327.474
-12988,-8456,0,-700,40857,36648,1210.137,2330.911,1207.852,5227,6636,88,2325.498
-12964,-8424,0,-681,40937,36664,1210.137,2330.172,1207.887,5215,6416,116,2326.134
-12920,-8424,0,-683,40265,36632,1209.931,2331.203,1207.68,5217,6492,86,2325.103
-13028,-8400,0,-670,40313,36440,1209.948,2330.395,1208.007,5224,6540,94,2326.426
-12936,-8452,0,-673,40233,36712,1210.086,2330.361,1207.732,5193,6488,114,2326.512
-12940,-8392,0,-687,40457,36248,1209.983,2330.052,1207.818,5220,6608,95,2326.186
-12920,-8528,0,-663,40489,36696,1210.12,2330.842,1207.904,5197,6516,144,2326.701
-12948,-8484,0,-665,40409,36360,1210.052,2330.825,1207.835,5275,6472,122,2326.392
-12920,-8404,0,-662,38217,34584,1210.086,2329.467,1207.869,5211,6520,139,2325.997
-12956,-8456,0,-659,40617,36680,1210.086,2330.258,1207.766,5264,6488,85,2325.429
-12984,-8432,0,-656,40713,36776,1210.206,2330.395,1207.818,5224,6632,104,2326.89
-12964,-8528,0,-695,38297,34728,1210.086,2330.515,1207.68,5255,6528,95,2326.735
-12936,-8416,0,-685,40489,36824,1210.069,2331.495,1207.646,5218,6524,87,2328.213
-12884,-8472,0,-699,40617,36680,1210.172,2330.653,1207.801,5230,6528,110,2327.732
-12988,-8408,0,-675,38761,34568,1210.017,2330.344,1207.766,5255,6600,105,2327.526
-12980,-8484,0,-681,40889,36856,1210.103,2331.392,1207.68,5199,6568,98,2326.752
-12880,-8408,0,-688,40441,36792,1209.966,2329.983,1207.852,5249,6484,57,2326.495
-13004,-8456,0,-675,38409,34744,1210.052,2330.567,1207.698,5186,6380,120,2326.048
-12912,-8464,0,-675,40633,36648,1210.086,2330.962,1207.766,5264,6488,108,2326.048
-12896,-8464,0,-656,40665,36728,1210.223,2329.536,1207.887,5179,6548,115,2326.632
-12948,-8464,0,-700,38489,34728,1210.069,2330.103,1208.058,5235,6532,105,2325.344
-12992,-8420,0,-687,40393,36937,1210.069,2330.086,1208.024,5225,6560,139,2326.237
-12964,-8380,0,-683,40665,36873,1210.034,2330.928,1207.766,5244,6484,106,2325.773
-13020,-8460,0,-707,38329,33944,1209.828,2329.708,1207.801,5280,6672,104,2325.515
-12920,-8468,0,-678,40729,36792,1210.137,2331.787,1207.783,5228,6488,118,2326.203
-13020,-8368,0,-688,41178,36905,1209.983,2329.674,1207.869,5234,6532,112,2325.704
-12948,-8380,65535,-681,38041,35000,1209.897,2329.76,1207.732,5277,6468,125,2324.656
-12880,-8408,0,-692,40601,36969,1210.052,2329.88,1207.68,5223,6496,111,2325.429
-12944,-8500,0,-659,41050,37001,1209.983,2328.969,1207.852,5196,6468,90,2325.361
-12996,-8448,0,-669,38425,37081,1209.983,2328.711,1207.835,5230,6524,115,2325.069
-13024,-8504,0,-670,40825,36712,1210.069,2329.209,1207.715,5233,6656,117,2324.914
-12920,-8560,0,-678,40713,36696,1210.155,2328.729,1207.698,5257,6432,90,2325.498
-12920,-8372,0,-665,40537,36712,1210.223,2328.557,1207.783,5255,6616,112,2324.983
-13016,-8456,0,-651,40809,37129,1210.069,2329.399,1207.869,5225,6504,121,2324.536
-12900,-8432,0,-690,40601,36216,1210.017,2328.66,1208.007,5210,6384,128,2324.364
-12904,-8472,0,-645,40521,36616,1210.034,2329.209,1207.869,5243,6436,76,2325.447
-13016,-8388,0,-643,40633,36856,1210.137,2330.979,1207.938,5210,6548,135,2326.323
-13004,-8372,0,-627,40697,36648,1209.966,2330.378,1207.852,5221,6592,130,2326.168
-12872,-8536,0,-700,40361,36584,1210.155,2330.344,1207.99,5219,6684,116,2325.429
-13008,-8472,0,-657,41226,37033,1209.966,2330.0,1207.801,5184,6520,153,2325.137
-12976,-8424,0,-663,40953,36873,1210.137,2329.639,1207.938,5222,6496,90,2325.258
-13028,-8480,0,-667,40489,36520,1210.052,2329.519,1207.749,5209,6544,126,2325.069
-13016,-8436,0,-671,40713,36873,1210.034,2330.756,1207.612,5244,6580,119,2325.052
-12976,-8456,0,-674,40473,37225,1209.914,2329.021,1207.749,5261,6532,95,2324.57
-13000,-8392,0,-685,38409,34936,1209.863,2329.45,1207.973,5264,6552,98,2324.622
-12828,-8596,0,-659,40713,37129,1210.103,2329.605,1207.698,5253,6508,85,2324.983
-13012,-8448,0,-657,40889,37049,1210.0,2329.467,1207.818,5235,6640,95,2324.88
-12972,-8464,0,-686,38409,35064,1209.931,2329.364,1207.715,5201,6480,103,2325.911
-12980,-8480,0,-698,40713,36937,1210.052,2330.137,1207.835,5256,6608,135,2324.76
-12868,-8432,0,-699,40889,37129,1210.069,2329.622,1207.904,5270,6588,96,2325.722
-12912,-8444,0,-680,38585,34728,1210.0,2329.948,1208.007,5246,6656,111,2325.584
-13092,-8464,0,-674,40937,37097,1210.137,2331.718,1207.783,5198,6412,121,2325.739
-13016,-8464,0,-670,40713,37113,1210.069,2331.186,1207.818,5246,6580,87,2326.375
-12944,-8440,0,-671,38249,34792,1210.206,2329.966,1207.766,5238,6404,113,2325.292
-13052,-8452,0,-690,41178,37081,1210.172,2329.948,1207.783,5260,6524,82,2325.842
-13028,-8404,0,-657,40697,37081,1210.155,2330.189,1207.835,5235,6620,108,2325.894
-13024,-8372,0,-674,38377,33960,1210.069,2330.137,1207.698,5244,6532,117,2325.567
-12924,-8512,0,-678,40713,36985,1210.172,2330.601,1207.698,5242,6616,110,2325.876
-12992,-8456,0,-670,40713,36873,1210.292,2329.485,1207.904,5204,6516,136,2325.979
-12924,-8388,0,-689,38457,34344,1210.155,2329.691,1207.783,5270,6404,99,2325.24
-12904,-8428,0,-635,41082,36953,1210.017,2330.034,1207.869,5197,6524,110,2326.014
-12884,-8436,0,-682,40793,36985,1210.137,2329.931,1207.973,5220,6576,87,2325.859
-12888,-8436,65535,-663,37993,35432,1210.189,2330.55,1207.801,5216,6664,105,2325.722
-13012,-8352,0,-652,41130,36873,1210.258,2329.794,1207.612,5199,6644,129,2325.704
-12832,-8428,0,-679,40825,36969,1210.309,2329.553,1208.041,5221,6540,96,2325.636
-13108,-8492,0,-667,38953,36953,1210.12,2330.034,1207.732,5247,6524,98,2325.567
-12944,-8428,0,-685,40649,37129,1210.223,2331.752,1207.955,5275,6556,110,2326.649
-12976,-8448,0,-661,40937,37129,1210.034,2329.914,1207.869,5219,6468,118,2324.931
-12868,-8480,0,-649,40553,36824,1210.103,2329.88,1207.869,5235,6668,107,2326.323
-13032,-8400,0,-674,40537,36712,1210.103,2330.378,1207.766,5197,6600,65,2325.584
-12904,-8368,0,-684,40809,35160,1210.12,2329.931,1207.749,5284,6476,114,2325.584
-12944,-8500,0,-681,49147,35368,1210.258,2329.777,1207.801,5218,6536,152,2326.615
-13088,-8344,0,-738,40873,35672,1210.292,2332.062,1207.783,5240,6488,38,2328.247
-12936,-8440,0,-811,39417,36424,1210.12,2331.237,1207.921,5529,6484,-13,2326.856
-12844,-8496,0,-619,40441,32503,1210.24,2330.997,1207.783,5166,6772,41,2326.821
-12856,-8508,0,-706,36056,33640,1210.206,2330.979,1207.783,5382,6584,355,2325.722
-12880,-8476,0,-786,27990,27894,1210.155,2330.052,1207.749,5227,6488,261,2326.117
-12984,-8344,0,-626,28967,26070,1210.069,2330.412,1207.749,4931,6540,-21,2326.151
-12948,-8468,0,-720,29879,27110,1210.24,2331.563,1207.852,5296,6564,18,2326.684
-13084,-8476,0,-701,30311,26710,1210.052,2330.069,1207.801,5253,6520,50,2325.859
-13024,-8432,0,-673,28871,25750,1210.103,2330.498,1207.818,5247,6592,93,2325.962
-12984,-8492,0,-665,30471,27142,1210.0,2330.653,1207.835,5224,6560,121,2326.357
-13028,-8368,0,-680,30711,27046,1209.948,2330.722,1207.594,5199,6552,170,2326.512
-13008,-8436,0,-714,29335,25430,1210.086,2329.948,1207.594,5324,6492,122,2325.997
-13032,-8396,0,-673,31287,27702,1210.034,2331.22,1207.904,5191,6564,121,2326.426
-12972,-8396,0,-648,30759,27878,1210.12,2329.244,1207.818,5216,6488,100,2328.093
-13020,-8432,0,-653,28518,26358,1210.12,2330.876,1207.715,5247,6508,99,2326.752
-12960,-8420,0,-721,30391,28326,1210.12,2331.186,1207.887,5330,6412,90,2326.942
-13052,-8348,0,-648,30647,28422,1209.983,2329.295,1207.921,5268,6544,121,2326.856
-13024,-8424,0,-682,28630,25926,1210.052,2329.33,1207.818,5229,6600,104,2325.704
-12944,-8444,0,-675,30471,28038,1210.137,2331.1,1207.56,5272,6516,78,2326.392
-13100,-8392,0,-663,30983,28342,1210.137,2330.567,1207.577,5236,6488,134,2326.959
-12920,-8348,0,-645,28935,24934,1210.0,2329.347,1207.852,5234,6596,129,2325.395
-13000,-8420,0,-656,30711,27654,1209.966,2332.783,1207.818,5289,6556,120,2325.997
-12988,-8372,0,-634,31063,27926,1209.983,2329.57,1207.955,5307,6456,94,2325.292
-13044,-8336,0,-654,28454,25974,1210.069,2330.344,1208.024,5208,6540,85,2325.464
-12956,-8520,0,-671,31255,28022,1210.017,2329.777,1207.955,5159,6604,114,2325.155
-12952,-8416,0,-662,31303,27302,1210.137,2329.038,1207.835,5208,6512,113,2325.361
-12988,-8352,0,-667,29367,28214,1209.897,2329.622,1207.887,5179,6492,174,2324.33
-12980,-8316,0,-682,31159,28054,1210.103,2330.017,1207.938,5201,6492,139,2326.942
-12984,-8476,0,-699,31287,28102,1210.189,2328.917,1207.887,5257,6264,124,2325.0
-12996,-8400,0,-674,30455,27702,1209.966,2329.021,1207.852,5221,6488,108,2325.636
-12948,-8384,0,-706,31399,28342,1210.12,2329.381,1207.818,5222,6488,107,2325.533
-13108,-8384,0,-688,31543,28278,1210.0,2329.021,1207.921,5268,6452,72,2324.639
-12932,-8296,0,-684,31351,27670,1210.12,2329.209,1207.852,5228,6484,127,2324.33
-12956,-8360,0,-685,31303,27990,1210.034,2329.622,1208.093,5215,6424,116,2324.725
-13008,-8388,0,-717,31351,27942,1209.966,2328.213,1207.938,5190,6392,160,2324.227
-13072,-8412,0,-640,31063,28166,1210.052,2329.828,1207.938,5185,6452,169,2324.725
-12992,-8340,0,-650,31287,28566,1209.966,2329.106,1207.852,5250,6516,92,2324.209
-12976,-8304,0,-660,31767,28759,1210.12,2328.454,1207.801,5220,6552,106,2325.0
-12928,-8372,0,-686,31671,28759,1210.12,2328.866,1207.921,5259,6396,113,2324.828
-13008,-8388,0,-666,31319,28855,1210.017,2329.742,1207.801,5204,6580,141,2325.55
-12964,-8388,0,-651,31783,28679,1209.931,2328.9,1208.024,5242,6720,92,2324.76
-12932,-8292,0,-670,31543,28646,1210.052,2328.797,1207.955,5253,6384,103,2324.244
-12880,-8372,0,-703,31495,28935,1209.914,2329.209,1208.093,5277,6504,142,2324.863
-12944,-8420,0,-657,31863,28823,1210.017,2328.505,1208.041,5248,6520,82,2323.883
-12932,-8356,0,-674,31207,28967,1209.931,2328.866,1208.093,5237,6544,104,2324.33
-13084,-8400,0,-689,31703,28935,1210.0,2329.141,1208.247,5274,6492,88,2324.175
-12948,-8408,0,-674,32007,28791,1209.948,2328.935,1208.041,5202,6448,112,2325.275
-12968,-8324,0,-695,29959,26902,1209.811,2328.969,1208.144,5276,6572,92,2325.0
-12984,-8364,0,-649,31847,29399,1210.155,2330.429,1207.869,5207,6428,128,2326.134
-13040,-8440,0,-657,31863,29191,1209.948,2328.711,1207.766,5242,6440,120,2323.625
-12904,-8416,0,-664,29639,27078,1210.155,2328.797,1208.024,5236,6532,107,2323.591
-12972,-8404,0,-651,31831,29015,1210.017,2329.141,1207.904,5249,6400,107,2323.23
-12976,-8364,0,-617,31735,28679,1210.12,2328.23,1208.024,5244,6388,82,2324.192
-12972,-8296,0,-673,29943,26774,1210.137,2328.282,1207.955,5239,6484,125,2324.055
-13036,-8368,0,-666,31575,28919,1210.017,2328.883,1207.973,5250,6492,129,2323.436
-13020,-8260,0,-674,31959,28871,1210.086,2328.419,1207.921,5274,6448,134,2324.777
-13084,-8364,0,-691,29975,26598,1210.017,2328.814,1208.35,5197,6476,112,2324.227
-13044,-8324,0,-705,31991,28679,1210.069,2329.124,1208.024,5262,6600,125,2324.381
-13096,-8368,0,-670,32199,28935,1209.914,2328.711,1207.938,5167,6492,120,2323.247
-12956,-8392,0,-686,29079,27110,1210.069,2328.161,1207.869,5205,6472,145,2323.23
-12972,-8400,0,-682,32119,28727,1210.103,2329.175,1207.852,5225,6612,146,2323.694
-12988,-8468,0,-682,31751,28775,1210.052,2331.426,1207.783,5230,6552,99,2326.237
-13128,-8276,0,-715,29783,28422,1210.0,2329.261,1207.594,5253,6496,94,2324.708
-13016,-8432,0,-685,31783,28903,1209.983,2329.124,1207.869,5210,6472,102,2323.385
-12972,-8308,0,-702,32279,28582,1209.88,2328.093,1207.698,5230,6488,116,2324.003
-12980,-8456,0,-659,32471,28438,1209.914,2328.797,1207.835,5218,6332,108,2324.192
-13044,-8336,0,-693,31767,29047,1210.137,2328.969,1207.887,5220,6500,160,2323.746
-12944,-8384,0,-669,31847,28935,1210.086,2328.488,1207.938,5242,6532,107,2323.419
-13044,-8404,0,-653,31831,28630,1210.034,2328.66,1207.835,5227,6516,134,2325.12
-13008,-8324,0,-682,32247,28662,1210.155,2329.828,1207.887,5225,6544,96,2325.79
-13064,-8404,0,-661,31863,28791,1210.017,2328.814,1208.11,5214,6604,121,2323.952
-13008,-8416,0,-694,31831,28390,1210.189,2327.921,1208.024,5251,6456,98,2323.711
-12976,-8352,0,-662,32055,28791,1210.017,2328.471,1207.887,5243,6520,91,2322.869
-12964,-8396,0,-668,32247,28406,1210.017,2328.299,1207.973,5233,6516,133,2324.038
-13128,-8384,0,-696,32231,28679,1210.034,2327.972,1207.904,5260,6512,91,2323.316
-13000,-8304,0,-677,32183,28695,1209.983,2328.557,1208.007,5251,6456,120,2323.969
-12996,-8356,0,-679,32599,28134,1210.052,2328.144,1207.99,5237,6400,93,2323.179
-13072,-8388,0,-670,32679,28695,1210.086,2328.54,1207.887,5240,6412,121,2323.041
-12980,-8360,0,-684,32487,28839,1210.069,2328.419,1207.973,5202,6524,99,2322.99
-13024,-8436,0,-678,32359,28662,1209.983,2329.244,1208.058,5235,6644,141,2325.103
-12996,-8332,0,-670,32375,28711,1209.983,2329.381,1207.904,5255,6404,85,2324.33
-13044,-8448,0,-645,32551,28695,1210.086,2329.33,1207.973,5237,6592,124,2323.179
-12912,-8320,0,-646,32599,28887,1209.931,2327.818,1207.887,5216,6396,84,2322.955
-12964,-8384,0,-679,30807,27318,1210.052,2328.161,1207.921,5277,6672,104,2323.041
-12988,-8332,0,-666,32183,29447,1210.017,2328.402,1207.938,5232,6460,117,2323.333
-13028,-8428,0,-672,32487,29239,1210.137,2328.488,1207.921,5261,6456,112,2323.368
-12980,-8384,0,-649,30183,27302,1210.12,2328.866,1207.783,5231,6408,139,2325.361
-12944,-8400,0,-667,32039,29207,1210.103,2328.9,1207.887,5196,6528,88,2324.192
-13000,-8380,0,-672,32183,29143,1210.103,2328.849,1207.869,5243,6528,134,2324.175
-13020,-8444,0,-664,29815,26230,1210.069,2328.9,1207.921,5211,6572,122,2325.275
-13052,-8316,0,-682,32039,28679,1209.914,2329.828,1208.161,5235,6548,111,2323.9
-13020,-8412,0,-663,32231,29095,1210.155,2328.574,1207.869,5246,6444,83,2323.832
-12932,-8368,0,-673,29735,27462,1210.137,2328.849,1207.869,5238,6540,138,2323.677
-13016,-8368,0,-699,32519,29335,1210.172,2329.948,1207.663,5252,6440,129,2327.612
-13000,-8284,0,-686,32695,29047,1210.069,2329.261,1207.715,5267,6452,142,2327.509
-12976,-8396,65535,-728,29447,27926,1210.086,2328.625,1207.732,5283,6576,86,2324.313
-13020,-8384,0,-704,32359,29335,1210.12,2330.155,1207.783,5228,6528,119,2325.361
-12996,-8344,0,-693,32615,29303,1210.034,2328.436,1207.835,5257,6388,101,2323.625
-13008,-8352,0,-713,31831,29223,1210.017,2328.282,1207.646,5247,6396,80,2323.505
-12932,-8280,0,-680,32375,29447,1210.017,2329.106,1207.783,5256,6440,117,2324.038
-12968,-8412,0,-709,33032,29447,1210.052,2328.265,1207.835,5215,6444,118,2325.12
-13032,-8200,0,-698,32519,29207,1210.069,2328.522,1207.646,5245,6656,116,2324.639
-12980,-8248,0,-702,32487,29607,1209.948,2328.746,1207.766,5226,6608,100,2324.553
-13004,-8472,0,-665,32631,29479,1209.983,2328.54,1207.663,5265,6584,85,2323.436
-13020,-8348,0,-686,32759,28630,1209.966,2327.852,1207.835,5248,6560,119,2322.783
-13000,-8448,0,-661,32599,29303,1210.0,2328.986,1207.869,5247,6544,137,2323.917
-13080,-8308,0,-657,33080,29383,1209.966,2328.007,1207.869,5191,6520,105,2323.161
-12988,-8388,0,-669,32135,28662,1210.069,2327.99,1207.869,5218,6448,110,2322.577
-12968,-8280,0,-673,33160,28983,1210.034,2328.711,1207.973,5222,6324,128,2322.732
-13048,-8388,0,-666,32375,29127,1210.086,2328.471,1208.041,5224,6504,116,2324.106
-12992,-8436,0,-657,32167,29271,1209.983,2328.694,1208.024,5235,6488,80,2323.471
-13012,-8332,0,-676,32375,29239,1210.189,2328.677,1207.99,5163,6408,88,2323.333
-13016,-8456,0,-674,32599,29015,1210.0,2328.385,1208.024,5222,6508,103,2323.78
-12976,-8448,0,-655,32631,29207,1210.189,2328.093,1207.921,5256,6436,115,2323.368
-12964,-8344,0,-672,32407,29303,1210.223,2329.416,1207.68,5240,6396,113,2323.866
-13060,-8368,0,-673,32888,29271,1210.292,2328.471,1207.766,5254,6372,122,2323.557
-12964,-8440,0,-729,32087,29447,1210.034,2328.402,1207.887,5190,6500,75,2323.608
-13012,-8424,0,-677,31927,29287,1209.966,2329.261,1207.732,5228,6604,132,2324.674
-12868,-8420,0,-666,32487,29543,1209.983,2329.244,1207.646,5257,6568,146,2325.756
-12984,-8368,0,-670,30535,27398,1209.88,2328.316,1207.818,5192,6544,99,2325.773
-13020,-8428,0,-676,32071,29415,1210.0,2328.832,1207.749,5214,6472,97,2324.948
-13036,-8416,0,-667,32695,29239,1210.034,2328.419,1207.783,5229,6448,111,2325.704
-12976,-8324,0,-667,30983,27510,1210.275,2329.777,1207.783,5207,6536,101,2326.151
-13012,-8364,0,-681,32439,29047,1210.155,2329.794,1207.835,5241,6416,87,2325.481
-13056,-8452,0,-668,32759,29287,1210.206,2332.234,1207.869,5249,6436,93,2325.722
-12972,-8304,0,-695,30775,26278,1210.189,2329.674,1207.904,5246,6520,96,2326.649
-12932,-8316,0,-651,31991,29239,1210.155,2330.67,1207.887,5212,6416,115,2325.962
-13028,-8416,0,-658,32631,29559,1210.086,2329.863,1207.715,5233,6436,116,2326.048
-13004,-8348,65535,-696,30103,27798,1210.24,2329.914,1208.144,5204,6516,107,2327.526
-13036,-8336,0,-660,32423,29175,1210.069,2330.155,1207.68,5204,6568,130,2325.962
-12952,-8292,0,-690,32888,29463,1210.137,2329.742,1207.938,5277,6484,116,2325.601
-13032,-8364,0,-667,30871,28983,1210.052,2328.78,1207.749,5239,6588,135,2324.863
-12896,-8420,0,-676,32711,29399,1209.966,2329.76,1207.663,5242,6596,75,2325.12
-12988,-8360,0,-672,32455,29143,1210.137,2328.677,1207.869,5241,6572,100,2325.034
-12980,-8304,0,-688,32551,29239,1210.086,2328.643,1207.938,5241,6572,139,2325.911
-12948,-8372,0,-674,32759,29479,1210.086,2330.24,1207.749,5238,6520,85,2325.464
-12964,-8396,0,-667,33016,29447,1210.069,2328.78,1207.818,5253,6428,135,2324.725
-12996,-8388,0,-675,32519,29415,1209.931,2328.591,1207.715,5236,6380,97,2325.464
-13040,-8344,0,-730,32759,29255,1210.017,2329.639,1207.887,5257,6564,94,2325.515
-13012,-8472,0,-681,32599,29655,1210.069,2329.931,1207.99,5206,6544,124,2325.928
-12972,-8300,0,-694,32872,29191,1209.931,2329.467,1207.973,5252,6504,104,2325.206
-13020,-8360,0,-709,33032,29351,1209.931,2329.639,1207.749,5190,6536,102,2325.24
-13048,-8372,0,-681,32007,29687,1210.103,2329.244,1207.766,5164,6536,111,2324.588
-13020,-8368,0,-657,30567,32071,1209.914,2328.797,1207.818,5184,6440,78,2323.935
-13144,-8380,0,-680,31495,29271,1210.172,2328.917,1207.869,5287,6524,95,2323.608
-12984,-8396,0,-697,29703,29015,1210.12,2328.11,1207.852,5317,6644,55,2322.474
-13052,-8404,0,-701,30887,28967,1210.034,2325.086,1207.766,5263,6520,99,2320.103
-13076,-8432,0,-687,30935,29351,1210.017,2326.375,1207.818,5234,6576,122,2322.698
-13040,-8340,0,-670,31159,29623,1209.966,2325.258,1207.869,5265,6524,138,2319.399
-13024,-8380,0,-675,31063,29239,1210.017,2325.275,1208.041,5231,6516,151,2318.986
-13048,-8492,0,-722,31287,29303,1210.0,2325.137,1207.99,5301,6476,98,2319.485
-12956,-8408,0,-676,31495,29207,1210.0,2324.605,1207.869,5207,6628,143,2318.488
-13068,-8388,0,-690,31015,29271,1209.983,2324.708,1208.007,5213,6516,113,2317.113
-13124,-8364,0,-692,31223,29287,1210.103,2325.309,1207.955,5254,6396,120,2320.429
-12976,-8364,0,-695,31415,29607,1209.948,2325.103,1207.835,5257,6508,110,2317.629
-13056,-8404,0,-677,29351,27670,1210.052,2324.485,1207.921,5238,6620,119,2317.285
-13004,-8280,0,-667,31319,29527,1209.88,2324.708,1207.887,5202,6556,116,2316.495
-12980,-8392,0,-668,31079,29719,1209.966,2323.797,1207.852,5253,6416,125,2313.368
-13016,-8328,0,-693,29303,26710,1210.155,2327.972,1208.041,5276,6540,90,2322.783
-13056,-8404,0,-659,31559,29735,1210.086,2330.739,1207.869,5225,6556,112,2324.622
-13012,-8388,0,-664,31495,29815,1210.103,2328.66,1207.955,5235,6544,139,2323.574
-12896,-8316,0,-674,29975,27254,1210.326,2329.313,1207.715,5217,6512,122,2323.797
-12988,-8368,0,-662,31447,30215,1210.137,2329.072,1207.904,5278,6644,99,2323.66
-13072,-8368,0,-677,31495,29815,1210.189,2328.402,1207.887,5230,6480,117,2324.519
-13024,-8320,65535,-653,29399,28598,1210.034,2328.144,1207.887,5256,6584,87,2324.76
-12904,-8256,0,-678,31559,30839,1210.086,2332.474,1207.904,5264,6436,134,2324.502
-13016,-8424,0,-725,30983,30823,1210.017,2328.917,1208.041,5144,6532,113,2324.124
-13000,-8380,0,-681,28502,29703,1210.137,2329.141,1207.938,5298,6488,155,2324.124
-12892,-8344,0,-658,30695,29543,1210.223,2329.553,1208.024,5252,6584,138,2325.052
-13076,-8360,0,-702,31095,29735,1210.155,2328.488,1208.076,5244,6636,81,2324.76
-13000,-8344,0,-653,30471,29751,1210.017,2329.175,1208.093,5238,6508,121,2323.9
-12944,-8440,0,-650,30711,29959,1210.052,2329.038,1207.973,5252,6548,161,2323.746
-13048,-8348,0,-663,31079,29879,1210.137,2329.897,1207.921,5225,6536,129,2323.608
-12908,-8432,0,-655,32759,30023,1209.983,2329.57,1208.488,5233,6440,123,2323.522
-13052,-8344,0,-662,30903,33384,1210.172,2328.935,1207.887,5222,6504,90,2323.368
-13040,-8360,0,-766,30311,29655,1210.017,2328.144,1207.921,5091,6568,140,2323.385
-12936,-8320,0,-653,30951,30295,1210.069,2329.244,1208.058,5241,6708,130,2323.917
-13000,-8544,0,-684,29959,29847,1210.155,2329.639,1207.818,5151,6516,125,2324.209
-13000,-8396,0,-696,29863,29943,1210.206,2328.814,1207.852,5152,6548,161,2323.694
-12960,-8468,0,-693,29959,29959,1210.189,2328.694,1207.887,5259,6412,97,2324.021
-13068,-8436,0,-734,28679,34360,1210.258,2328.54,1207.887,5381,6468,47,2323.333
-12968,-8356,0,-650,29511,35016,1209.983,2329.106,1207.869,5170,6488,97,2324.639
-12916,-8424,0,-720,29287,28903,1210.189,2327.938,1207.749,5239,6492,71,2323.643
-12956,-8336,0,-734,30359,29255,1210.275,2328.505,1208.11,5178,6508,126,2323.746
-13180,-8456,0,-625,35816,29767,1210.258,2327.801,1207.955,5207,6548,61,2323.729
-13072,-8444,0,-699,36905,29431,1210.447,2328.213,1207.921,5348,6376,103,2324.209
-12976,-8472,0,-619,33240,30471,1210.155,2329.416,1207.783,5124,6468,77,2324.674
-12972,-8348,0,-677,31431,30055,1210.0,2328.247,1207.732,5107,6592,72,2323.814
-12968,-8464,0,-686,32023,29959,1210.137,2327.783,1207.715,5374,6560,66,2323.265
-13052,-8392,0,-702,31703,29959,1210.155,2328.643,1207.801,5271,6568,137,2323.23
-12876,-8456,0,-625,32055,30215,1210.275,2329.175,1207.749,5225,6668,80,2324.45
-13096,-8460,0,-679,30327,28630,1210.017,2328.522,1207.921,5257,6476,76,2323.66
-12940,-8404,0,-671,32167,30471,1210.034,2328.625,1207.99,5255,6580,111,2323.935
-13052,-8364,0,-661,32631,30455,1210.137,2328.265,1208.007,5220,6560,71,2323.763
-12984,-8388,0,-701,30423,27910,1210.052,2328.471,1207.629,5242,6428,138,2323.935
-12992,-8432,0,-671,32695,30647,1210.034,2328.969,1207.715,5239,6340,122,2323.9
-13024,-8392,0,-659,32936,30647,1210.12,2328.454,1207.852,5213,6388,104,2323.797
-13036,-8444,0,-674,29959,28422,1210.24,2329.021,1207.68,5261,6668,83,2323.54
-12936,-8508,0,-678,32119,30647,1210.155,2328.488,1207.904,5230,6584,111,2324.313
-12996,-8380,0,-674,33080,30775,1210.086,2328.797,1207.955,5280,6608,111,2324.588
-13016,-8400,0,-658,30471,34216,1210.206,2329.381,1207.938,5190,6432,107,2324.278
-12928,-8428,0,-698,33176,31799,1210.155,2328.849,1207.818,5233,6704,110,2323.127
-13032,-8432,0,-566,32295,29991,1210.12,2328.557,1207.887,5196,6572,176,2323.832
-12968,-8336,0,-664,32295,30359,1210.292,2328.041,1207.921,5255,6572,112,2323.402
-13024,-8416,0,-662,32199,30551,1210.137,2329.485,1207.698,5224,6420,84,2324.588
-12936,-8332,0,-604,34056,35192,1210.155,2328.66,1207.783,4931,6540,159,2324.725
-12872,-8412,0,-649,33176,29783,1210.258,2327.852,1207.698,5248,6480,157,2324.588
-12936,-8356,0,-650,32952,29671,1210.258,2328.385,1207.869,5297,6612,180,2323.969
-13020,-8400,0,-651,32727,29831,1210.206,2329.106,1207.801,5288,6404,101,2324.038
-13032,-8456,0,-670,32535,29655,1210.189,2328.144,1207.835,5280,6664,99,2322.302
-13040,-8396,0,-669,33112,30183,1210.069,2328.144,1207.68,5234,6608,123,2322.698
-12980,-8436,0,-673,33016,30231,1210.172,2327.251,1207.732,5242,6480,100,2322.543
-12984,-8352,0,-652,32759,30055,1210.189,2327.371,1207.973,5204,6292,136,2322.526
-12976,-8368,0,-693,33112,30327,1210.172,2328.608,1208.024,5263,6588,91,2323.299
-12996,-8464,0,-658,33032,30583,1210.361,2327.612,1207.887,5214,6484,122,2322.972
-13072,-8316,0,-677,32567,30631,1210.309,2327.646,1207.698,5240,6500,103,2322.68
-13064,-8492,0,-652,33080,30471,1210.155,2327.972,1207.732,5217,6408,121,2322.423
-12960,-8436,0,-663,33016,30343,1210.172,2327.577,1207.955,5266,6512,114,2322.938
-12932,-8440,0,-683,32984,30215,1210.052,2327.509,1207.887,5236,6284,124,2323.608
-13012,-8468,0,-688,33192,30231,1210.206,2328.866,1207.715,5239,6548,85,2323.9
-13012,-8368,0,-692,32968,30471,1210.0,2328.058,1207.646,5272,6556,139,2324.502
-12900,-8452,0,-635,33448,30727,1210.189,2328.557,1207.663,5317,6648,117,2324.467
-13068,-8360,0,-664,33144,30775,1210.155,2328.9,1207.732,5267,6300,113,2323.763
-13088,-8412,0,-654,33464,30983,1210.137,2329.158,1207.663,5219,6328,85,2325.533
-13024,-8320,0,-662,33320,30823,1210.103,2329.175,1207.56,5231,6492,131,2324.966
-12976,-8336,0,-671,33192,30727,1210.155,2329.931,1207.749,5177,6564,153,2325.842
-12992,-8364,0,-702,33544,30839,1210.052,2328.935,1207.835,5265,6632,113,2324.777
-12888,-8348,0,-678,31095,28839,1210.24,2328.385,1207.783,5220,6516,116,2324.966
-13096,-8452,0,-680,33704,30279,1210.034,2329.244,1207.835,5221,6488,91,2324.192
-13024,-8428,0,-678,33640,30983,1210.137,2328.591,1207.818,5273,6452,66,2324.227
-13124,-8360,0,-698,30679,28502,1210.069,2328.488,1207.732,5243,6576,112,2324.708
-12948,-8368,0,-687,33480,31143,1210.086,2329.691,1207.749,5245,6444,108,2323.66
-13020,-8392,0,-699,33592,31095,1210.017,2328.797,1207.766,5253,6472,74,2324.742
-12936,-8436,65535,-686,31223,29911,1210.275,2329.295,1207.715,5223,6584,113,2324.278
-13072,-8332,0,-665,33624,30999,1210.412,2330.498,1207.818,5231,6484,102,2323.917
-12964,-8368,0,-700,33320,31383,1210.361,2325.859,1207.973,5230,6628,101,2318.247
-12936,-8408,0,-694,32007,31191,1210.24,2326.065,1207.955,5285,6612,124,2318.729
-13012,-8404,0,-720,33112,32263,1210.103,2325.636,1207.766,5234,6448,108,2318.024
-12956,-8368,0,-672,33640,31319,1209.983,2323.917,1207.835,5232,6536,154,2316.34
-13028,-8480,0,-653,33544,32759,1210.086,2324.416,1207.698,5084,6476,157,2316.1
-13116,-8380,0,-691,33496,30999,1209.914,2324.76,1207.921,5165,6540,108,2316.856
-13032,-8396,0,-661,33208,31175,1210.052,2324.33,1207.818,5214,6424,110,2318.007
-12972,-8452,0,-727,49147,30983,1210.0,2323.969,1207.818,5289,6520,87,2316.615
-13040,-8440,0,-683,33528,31015,1210.0,2325.584,1207.852,5211,6592,178,2319.124
-13072,-8380,0,-653,33912,35000,1210.017,2325.704,1207.852,5311,6480,40,2319.777
-12980,-8348,0,-735,33752,31863,1210.034,2325.687,1207.835,5302,6508,89,2318.986
-13044,-8400,0,-661,33560,30823,1210.137,2325.704,1207.801,5221,6404,135,2318.711
-12940,-8388,0,-671,34056,30871,1210.034,2325.481,1207.835,5231,6484,122,2318.814
-12900,-8348,0,-662,33592,31079,1210.0,2323.986,1207.801,5274,6500,115,2317.062
-12968,-8460,0,-657,33544,31079,1210.017,2324.295,1208.161,5225,6420,150,2317.01
-12952,-8364,0,-707,33720,31207,1209.983,2323.952,1208.127,5261,6616,116,2317.251
-12864,-8368,0,-693,33896,31175,1210.206,2324.021,1207.887,5185,6404,121,2316.649
-13064,-8408,0,-662,33496,31463,1210.086,2324.33,1207.818,5192,6400,109,2316.495
-12968,-8420,0,-715,33800,31591,1210.155,2323.522,1207.835,5281,6492,90,2316.546
-12996,-8416,0,-659,33560,31383,1210.206,2323.625,1208.11,5215,6480,137,2316.804
-12992,-8292,0,-703,33640,31495,1210.206,2325.481,1208.058,5268,6384,88,2319.777
-12980,-8292,0,-675,33768,31703,1210.223,2325.378,1207.973,5248,6492,110,2318.849
-12968,-8336,0,-653,33576,31543,1210.052,2324.45,1207.955,5259,6476,75,2318.694
-12872,-8396,0,-667,33768,31495,1210.223,2324.897,1207.938,5195,6396,118,2318.986
-12956,-8352,0,-665,34008,31719,1210.103,2324.021,1207.869,5217,6488,86,2319.261
-12972,-8296,0,-669,34104,31671,1210.069,2325.309,1208.179,5274,6404,78,2318.952
-12960,-8424,0,-641,33960,31607,1210.223,2324.863,1207.938,5176,6592,113,2318.265
-13068,-8336,0,-684,33720,31415,1210.172,2323.849,1207.835,5191,6504,102,2318.866
-13000,-8348,0,-677,32007,28855,1210.052,2324.244,1207.801,5243,6476,97,2318.436
-13008,-8384,0,-664,33816,31495,1210.412,2324.794,1207.99,5256,6456,105,2319.33
-12996,-8360,0,-648,33560,31447,1210.069,2322.698,1207.887,5224,6384,105,2327.732
-13088,-8372,65535,-658,31799,30599,1210.24,2324.244,1208.076,5220,6396,148,2322.766
-12904,-8480,0,-680,34120,35176,1210.309,2328.041,1208.093,5380,6552,88,2317.406
-13012,-8476,0,-753,34568,31847,1210.275,2327.062,1208.213,5371,6468,139,2322.371
-12976,-8324,0,-655,32007,31543,1210.172,2326.271,1208.179,5216,6488,146,2322.612
-12900,-8344,0,-698,34088,31991,1210.275,2329.742,1208.093,5234,6488,128,2325.533
-13052,-8400,0,-683,34296,31911,1210.155,2327.886,1208.041,5304,6504,66,2324.674
-13000,-8408,0,-677,33896,31975,1210.258,2331.014,1208.385,5192,6500,93,2325.894
-13028,-8368,0,-659,34328,32007,1210.189,2329.76,1208.093,5237,6600,120,2321.083
-12876,-8368,0,-648,34264,31655,1210.052,2327.99,1208.076,5240,6672,113,2323.746
-13068,-8328,0,-665,33704,31495,1210.189,2328.041,1207.938,5238,6508,125,2323.711
-12988,-8400,0,-683,34056,32055,1210.137,2328.54,1208.024,5211,6412,119,99.94846
-13028,-8424,0,-656,34360,32343,1210.052,2327.715,1208.23,5238,6568,116,101.2543
-13012,-8380,0,-674,33816,31831,1210.172,2327.56,1208.024,5209,6440,124,100.3093
-12984,-8356,0,-689,34808,33048,1210.017,2328.179,1208.007,5258,6552,129,2323.351
-12924,-8272,0,-612,33832,29767,1210.137,2327.801,1207.869,5243,6380,177,2323.729
-13236,-8116,0,-734,33496,30647,1210.172,2327.68,1208.282,5233,6200,210,2322.801
-13216,-8064,0,-579,36889,33208,1210.069,2328.54,1208.161,5297,6396,162,2323.402
-12792,-8448,0,-585,39609,41770,1210.24,2327.938,1208.265,5321,6804,77,2323.041
-12932,-8476,0,-762,40921,40633,1210.086,2328.127,1208.385,5105,6588,163,2323.265
-12868,-8604,0,-712,42938,34056,1210.086,2327.904,1208.179,5293,6644,122,2323.471
-12852,-8560,0,-714,44474,35032,1210.017,2328.488,1208.041,5385,6800,209,2324.227
-12868,-8548,0,-664,43450,40953,1210.086,2328.041,1207.938,5245,6732,163,2323.299
-12864,-8396,0,-649,34168,37241,1210.103,2328.161,1208.024,5077,6504,40,2323.625
-12996,-8540,0,-568,38457,29527,1210.12,2327.56,1207.973,4962,6688,-172,2323.866
-12984,-8608,0,-628,32311,35592,1210.052,2328.144,1208.23,5227,6252,-143,2323.488
-12992,-8388,0,-756,29527,29367,1210.172,2327.68,1208.076,5274,6252,604,2325.24
-12924,-8440,0,-643,27830,28679,1210.052,2328.66,1207.955,5247,6428,94,2324.88
-12932,-8368,0,-732,28406,28823,1210.24,2328.54,1208.058,5198,6632,117,2323.299
-12976,-8432,0,-707,33656,28935,1210.223,2327.766,1207.99,5149,6576,47,2323.505
-13072,-8520,0,-695,33016,29367,1210.206,2327.886,1208.093,5306,6396,91,2323.625
-13140,-8620,0,-663,32888,29959,1210.069,2328.161,1207.938,5236,6316,137,2323.677
-13052,-8356,0,-718,29623,29959,1210.034,2328.127,1208.041,5318,6568,87,2324.381
-13032,-8404,0,-643,27190,27366,1210.172,2328.11,1207.818,5193,6632,161,2324.227
-12864,-8464,0,-670,29287,29975,1210.344,2329.055,1207.869,5245,6508,118,2326.598
-12868,-8272,0,-682,29943,30231,1210.275,2328.265,1208.024,5251,6532,99,2325.808
-13020,-8412,65535,-669,27382,28438,1210.189,2329.863,1208.076,5211,6572,120,2324.485
-12984,-8320,0,-659,30039,30199,1210.24,2329.038,1207.938,5268,6396,94,2328.54
-13016,-8372,0,-661,29767,30359,1210.189,2328.66,1208.058,5225,6580,117,2325.584
-12992,-8368,0,-663,28022,30311,1210.137,2328.522,1208.076,5214,6664,108,2324.502
-13096,-8356,0,-660,30519,30423,1210.137,2329.416,1207.973,5227,6508,86,2324.639
-13060,-8360,0,-663,30231,30279,1210.103,2329.261,1207.938,5288,6468,124,2325.12
-13052,-8544,0,-642,30327,65535,1210.137,2330.223,1207.99,5208,6492,122,2326.495
-12912,-8448,0,-674,30551,30455,1210.103,2330.636,1208.024,5219,6552,132,2326.357
-12924,-8456,0,-653,30327,30471,1210.258,2328.591,1207.887,5249,6564,89,2324.674
-13016,-8388,0,-661,32759,30775,1210.24,2329.021,1208.144,5201,6588,144,2324.794
-12900,-8500,0,-672,30759,30727,1210.292,2329.261,1208.076,5204,6600,129,2324.605
-12980,-8388,0,-665,30935,30967,1210.223,2329.175,1207.955,5256,6536,86,2325.429
-13080,-8384,0,-692,30887,30183,1210.137,2327.972,1208.058,5182,6460,122,2324.983
-12972,-8404,0,-650,31015,30695,1210.12,2329.33,1208.024,5249,6460,157,2324.57
-12868,-8300,0,-700,31079,30903,1210.172,2328.729,1208.041,5227,6652,104,2324.605
-13016,-8352,0,-650,30759,30903,1210.275,2328.402,1208.144,5215,6576,117,2324.227
-12992,-8380,0,-680,31191,30711,1210.086,2328.729,1208.007,5231,6560,119,2323.179
-12972,-8396,0,-629,31031,30711,1210.189,2328.247,1207.921,5240,6404,136,2323.814
-12988,-8508,0,-647,31495,30727,1210.034,2327.749,1207.852,5203,6496,63,2322.749
-13020,-8380,0,-683,31495,31015,1210.155,2328.265,1207.869,5265,6488,123,2323.11
-13196,-8396,0,-641,31255,31095,1210.189,2327.457,1207.818,5139,6528,131,2323.351
-12912,-8348,0,-683,31239,30871,1210.069,2327.612,1207.887,5251,6512,113,2323.23
-12880,-8344,0,-648,31239,30983,1210.12,2328.711,1208.127,5229,6452,68,2323.814
-12956,-8324,0,-677,31527,31095,1210.052,2328.625,1207.921,5242,6444,117,2324.227
-13068,-8396,0,-680,31751,31143,1210.155,2328.368,1207.887,5221,6668,63,2324.794
-13008,-8296,0,-718,31735,30983,1210.155,2327.732,1207.869,5259,6604,87,2322.577
-13088,-8440,0,-649,31511,31143,1210.24,2325.0,1207.852,5230,6448,93,2321.942
-12980,-8448,0,-732,31735,31207,1210.206,2325.275,1207.887,5230,6488,120,2319.76
-12936,-8396,0,-642,31767,30871,1210.258,2326.1,1207.852,5205,6496,97,2319.966
-13016,-8360,0,-658,31591,30983,1210.086,2325.034,1207.818,5263,6440,102,2318.402
-13044,-8384,0,-652,31623,31287,1210.155,2324.588,1207.732,5206,6560,96,2321.478
-12932,-8436,0,-666,31079,30951,1210.052,2324.914,1207.646,5214,6616,127,2318.763
-13248,-8384,0,-689,31479,31239,1210.24,2331.787,1207.938,5280,6536,103,2328.007
-12956,-8336,0,-687,28662,29271,1210.137,2330.069,1207.818,5234,6556,119,2328.093
-13016,-8360,0,-647,31495,31335,1210.155,2328.952,1207.887,5248,6352,103,2325.464
-13064,-8396,0,-682,31031,31335,1210.223,2328.746,1208.024,5176,6488,124,2324.347
-12964,-8316,0,-666,28983,31031,1210.172,2328.419,1208.591,5194,6392,94,2324.381
-13080,-8368,0,-698,31543,31415,1210.206,2329.175,1207.921,5286,6548,96,2324.605
-12964,-8344,0,-701,31031,31511,1210.155,2328.402,1208.041,5227,6572,131,2324.691
-12984,-8252,0,-686,31575,31175,1210.137,2328.247,1207.955,5260,6544,117,2323.763
-12932,-8408,0,-695,31127,31255,1210.069,2329.347,1207.99,5182,6584,137,2324.502
-13020,-8344,0,-674,31335,31671,1210.069,2329.45,1207.852,5217,6368,99,2324.433
-12972,-8360,0,-690,31095,30983,1210.155,2328.402,1207.973,5221,6492,94,2324.708
-12832,-8380,0,-701,31543,31527,1210.326,2329.055,1207.904,5247,6556,82,2324.072
-13080,-8424,0,-689,31479,31495,1210.172,2328.711,1208.179,5230,6472,129,2326.151
-13108,-8352,0,-677,30999,31015,1210.206,2328.024,1208.144,5287,6536,78,2324.742
-12956,-8360,0,-685,31703,31447,1210.137,2328.729,1207.869,5194,6488,116,2323.625
-13076,-8484,0,-667,31351,31303,1210.086,2328.402,1207.99,5248,6596,90,2325.687
-13024,-8392,0,-697,31095,32023,1209.948,2328.265,1207.938,5195,6504,114,2324.828
-12932,-8348,0,-667,31351,31495,1210.052,2329.227,1207.955,5231,6508,95,2325.326
-13076,-8464,0,-637,31127,31911,1209.948,2329.124,1207.973,5168,6564,110,2324.639
-12968,-8448,0,-681,31207,31831,1210.069,2328.23,1208.024,5249,6504,89,2324.381
-13012,-8312,0,-733,31079,32023,1209.948,2326.529,1208.093,5247,6620,118,2322.131
-13004,-8388,0,-677,31319,31735,1210.0,2324.158,1208.179,5248,6472,104,2317.938
-13012,-8504,0,-677,30919,32231,1209.897,2323.763,1208.282,5231,6540,134,2317.406
-13020,-8408,0,-697,31479,31831,1209.914,2324.45,1208.161,5246,6552,162,2316.546
-12984,-8372,0,-652,31527,31495,1210.12,2325.412,1208.282,5230,6456,120,2318.402
-13060,-8380,0,-704,31479,31415,1210.034,2323.351,1208.024,5252,6428,94,2317.543
-13000,-8376,0,-685,31751,31495,1209.948,2324.536,1207.921,5239,6392,120,2319.227
-12988,-8352,0,-687,31607,31383,1209.983,2325.859,1207.938,5251,6528,128,2320.601
-13024,-8364,0,-672,31607,31159,1209.966,2323.832,1207.938,5244,6596,117,2317.44
-12984,-8352,0,-699,31927,31575,1209.914,2324.674,1207.835,5199,6476,174,2316.22
-12872,-8380,0,-702,31735,31495,1210.017,2323.849,1207.801,5220,6428,119,2316.134
-12944,-8400,0,-690,32071,32055,1209.966,2322.045,1207.904,5277,6440,92,2318.9
-13040,-8404,0,-676,32007,31655,1210.103,2329.502,1207.904,5275,6716,128,2325.103
-12848,-8352,0,-649,31895,31543,1210.12,2328.402,1207.904,5226,6644,102,2325.326
-12996,-8428,0,-682,31783,31639,1210.086,2328.282,1207.973,5249,6320,94,2323.419
-13036,-8372,0,-687,31719,32183,1210.103,2328.213,1208.041,5265,6596,105,2324.914
-13044,-8364,0,-665,31927,32023,1210.052,2327.783,1208.041,5242,6528,105,2323.952
-12968,-8440,65535,-687,29399,30327,1210.086,2325.533,1207.973,5281,6380,103,2319.261
-12980,-8304,0,-662,32055,31975,1210.034,2326.151,1207.904,5200,6508,130,2321.22
-12976,-8348,0,-670,31959,31799,1210.189,2326.512,1208.007,5239,6504,97,2322.354
-12920,-8372,0,-647,29703,31063,1210.12,2324.364,1207.801,5232,6496,120,2318.299
-12944,-8324,0,-684,31671,31831,1210.12,2325.137,1207.887,5245,6576,53,2318.161
-13080,-8308,0,-651,31495,31527,1210.24,2330.103,1207.869,5208,6564,102,2328.247
-12952,-8388,0,-691,31799,31671,1210.137,2328.9,1207.938,5284,6576,106,2327.783
-12960,-8328,0,-687,32055,32119,1210.24,2329.278,1207.835,5246,6456,116,2326.392
-13008,-8272,0,-662,32311,32039,1210.155,2328.797,1207.904,5313,6364,93,2325.189
-12976,-8464,0,-663,31911,31751,1210.137,2329.605,1207.818,5283,6396,90,2324.639
-12968,-8376,0,-673,32119,32087,1210.034,2328.127,1207.887,5248,6420,98,2326.821
-12968,-8368,0,-668,32343,32167,1210.137,2328.814,1207.698,5173,6624,128,2325.361
-13020,-8388,0,-700,32055,33784,1210.103,2328.608,1207.766,5261,6424,58,2325.223
-12980,-8492,0,-633,32615,31895,1210.017,2327.99,1207.938,5197,6488,120,2323.608
-13036,-8380,0,-641,32167,31255,1210.034,2327.766,1207.869,5175,6544,140,2324.278
-12964,-8388,0,-645,32279,31207,1210.103,2327.732,1208.024,5243,6576,119,2323.849
-12964,-8360,0,-674,32567,30935,1210.155,2328.076,1208.196,5242,6512,74,2323.883
-12956,-8368,0,-632,32375,31287,1210.103,2327.904,1208.041,5211,6620,107,2324.141
-12956,-8372,0,-672,32471,31911,1210.0,2327.715,1208.11,5238,6588,102,2323.505
-12936,-8404,0,-663,32439,31431,1210.258,2328.299,1207.921,5238,6604,102,2324.072
-13052,-8416,0,-666,32439,31943,1210.052,2328.694,1207.973,5217,6508,145,2324.931
-13076,-8364,0,-650,32663,31991,1210.206,2328.024,1208.058,5265,6500,82,2326.512
-12920,-8364,0,-656,32519,31751,1210.017,2328.23,1207.869,5179,6456,122,2324.089
-12980,-8272,0,-694,32519,32167,1210.12,2327.32,1208.007,5250,6516,97,2324.072
-12848,-8428,0,-721,32343,35544,1210.189,2327.783,1207.973,5321,6580,37,2324.244
-12988,-8436,0,-685,32920,32503,1210.24,2328.454,1208.093,5308,6644,115,2324.175
-13024,-8332,0,-670,32856,32279,1210.172,2328.265,1207.955,5226,6592,163,2324.106
-12976,-8464,0,-659,32856,32952,1210.189,2328.144,1207.869,5243,6684,151,2324.055
-13028,-8388,0,-691,33352,32856,1210.223,2328.54,1208.058,5224,6576,110,2324.502
-13064,-8388,0,-674,33016,33384,1210.069,2329.588,1207.955,5214,6548,140,2324.553
-13080,-8448,0,-820,31751,33112,1210.103,2328.454,1207.904,5445,6312,115,2324.76
-12976,-8352,0,-659,31191,33288,1210.12,2328.849,1207.887,5198,6468,135,2323.368
-13096,-8300,0,-670,31191,33592,1210.086,2328.23,1207.904,5202,6508,99,2324.158
-12960,-8376,0,-649,31767,33336,1210.103,2327.886,1207.955,5241,6516,105,2324.227
-13008,-8428,0,-669,31799,33192,1210.155,2328.522,1207.835,5234,6592,109,2324.038
-12928,-8440,0,-725,32007,35032,1210.103,2328.041,1207.938,5286,6520,88,2324.038
-13068,-8404,0,-699,31975,33000,1210.155,2328.11,1207.99,5294,6548,107,2324.209
-13008,-8356,0,-691,32119,33000,1210.086,2328.385,1207.801,5218,6592,127,2324.45
-13080,-8440,0,-644,32103,33368,1210.0,2327.131,1207.818,5278,6456,112,2323.729
-13080,-8416,0,-623,29815,32263,1210.103,2325.945,1207.749,5339,6508,73,2321.34
-12896,-8336,0,-690,31975,32535,1209.863,2325.928,1207.835,5268,6448,77,2317.852
-12948,-8380,0,-682,30823,35896,1209.828,2324.691,1207.835,5310,6364,46,2318.9
-12972,-8444,0,-601,30967,31783,1210.0,2324.502,1207.921,5088,6484,125,2318.591
-13028,-8468,0,-696,31239,31911,1210.052,2325.189,1207.938,5223,6524,80,2318.316
-13016,-8408,0,-683,31303,36296,1210.086,2324.175,1208.11,5264,6528,94,2317.818
-12944,-8416,0,-670,32759,32519,1210.0,2323.677,1207.938,5235,6572,197,2318.402
-12940,-8284,0,-665,31495,32920,1210.052,2324.381,1207.938,5236,6556,105,2318.161
-12964,-8444,0,-683,31975,32904,1209.966,2324.175,1207.921,5234,6504,95,2318.591
-12940,-8416,0,-687,31383,32471,1210.017,2325.0,1207.921,5209,6548,119,2319.553
-12952,-8388,0,-683,31975,33016,1210.206,2325.876,1207.835,5234,6600,123,2320.464
-12888,-8264,0,-702,31831,32631,1210.275,2323.694,1207.904,5221,6508,110,2318.23
-13052,-8340,0,-688,31511,33032,1210.034,2323.814,1208.058,5243,6496,111,2317.027
-12876,-8384,0,-689,31511,32968,1210.017,2325.155,1208.058,5227,6432,122,2318.007
-13028,-8372,0,-674,31927,33544,1210.0,2324.055,1208.076,5271,6628,90,2317.835
-13044,-8432,0,-694,31591,32567,1210.086,2323.917,1208.179,5271,6516,135,2318.23
-13060,-8408,0,-688,31703,33016,1210.086,2324.76,1208.144,5261,6444,111,2317.337
-12856,-8456,0,-684,32119,33032,1210.069,2323.814,1208.11,5178,6456,153,2317.646
-13012,-8492,0,-685,32007,32727,1210.017,2323.522,1207.921,5307,6572,100,2317.045
-12912,-8464,0,-660,32103,33176,1210.017,2325.137,1207.973,5219,6604,93,2318.23
-13044,-8424,0,-652,32039,32872,1210.172,2324.828,1207.818,5241,6556,79,2319.622
-13008,-8496,0,-716,32359,32952,1210.086,2329.485,1207.904,5238,6496,102,2324.089
-13052,-8404,0,-665,32071,33304,1210.052,2329.708,1207.887,5223,6544,106,2324.914
-13004,-8440,0,-684,32375,36104,1210.086,2329.33,1207.818,5278,6660,108,2328.436
-12868,-8468,0,-674,32535,31495,1210.24,2328.935,1207.852,5199,6688,58,2325.086
-13032,-8392,0,-659,31607,31015,1210.172,2328.23,1208.282,5308,6596,61,2323.402
-13024,-8456,0,-666,31495,30711,1210.155,2328.179,1207.801,5311,6444,35,2324.192
-13008,-8392,0,-673,31607,31415,1210.258,2327.646,1207.921,5260,6536,147,2323.54
-13000,-8324,0,-659,32007,31335,1210.24,2328.419,1207.852,5222,6624,104,2324.347
-13012,-8416,0,-669,31911,31591,1210.034,2328.247,1207.852,5230,6536,98,2323.935
-13016,-8492,0,-672,32039,31511,1210.103,2327.663,1207.904,5223,6608,122,2323.9
-12892,-8396,0,-669,31767,31671,1210.155,2327.955,1208.058,5236,6528,111,2323.832
-13004,-8412,0,-670,31863,31575,1210.103,2328.488,1207.955,5201,6540,95,2324.347
-12976,-8476,0,-641,32007,31607,1210.017,2328.54,1207.698,5229,6548,88,2324.622
-12908,-8424,0,-654,32231,31831,1210.103,2329.175,1207.818,5234,6464,136,2324.536
-12956,-8412,0,-674,32023,31639,1210.052,2328.196,1207.869,5237,6480,144,2324.33
-13036,-8400,0,-627,32103,31671,1210.103,2327.886,1207.715,5235,6568,124,2324.433
-13048,-8440,0,-673,32375,31495,1210.103,2328.419,1207.921,5247,6384,108,2323.797
-12984,-8408,0,-670,32199,31831,1210.223,2328.333,1208.058,5196,6564,106,2324.622
-13008,-8448,0,-662,32167,31927,1210.017,2328.179,1208.007,5222,6484,87,2323.797
-13008,-8460,0,-680,32215,31831,1210.034,2328.591,1207.973,5229,6396,126,2323.883
-13060,-8468,0,-677,32311,31559,1210.052,2328.454,1208.127,5260,6460,69,2324.588
-12988,-8408,0,-679,32007,32007,1209.983,2328.522,1208.265,5229,6620,118,2324.725
-12936,-8416,0,-667,32119,32471,1210.155,2328.883,1207.852,5246,6552,103,2324.364
-12972,-8300,0,-634,32375,32007,1210.206,2328.694,1207.887,5205,6548,106,2324.656
-13020,-8432,0,-645,32151,31863,1210.137,2327.749,1208.007,5216,6468,114,2323.883
-12940,-8424,0,-644,32231,31799,1210.137,2328.952,1208.144,5230,6452,99,2324.588
-12956,-8460,0,-679,32359,32151,1210.223,2327.921,1207.921,5225,6508,93,2323.797
-12936,-8332,0,-701,32359,32055,1210.206,2328.11,1207.887,5238,6480,96,2323.711
-13000,-8472,0,-675,32439,32183,1210.223,2328.643,1208.11,5239,6500,120,2323.952
-12928,-8432,0,-655,32263,32439,1210.258,2328.368,1207.887,5230,6588,86,2323.883
-13020,-8356,0,-673,32311,32023,1210.206,2327.869,1207.921,5211,6600,115,2324.003
-12960,-8344,0,-671,32487,32375,1210.344,2329.209,1207.887,5234,6524,118,2323.557
-12864,-8360,0,-658,32359,32519,1210.258,2327.869,1207.904,5218,6624,108,2323.419
-13024,-8428,0,-662,31975,33112,1210.034,2328.076,1207.766,5233,6444,128,2323.729
-12920,-8388,0,-687,32007,36104,1210.292,2328.608,1208.041,5220,6560,74,2323.368
-12948,-8432,0,-705,32920,33288,1210.086,2328.282,1207.955,5293,6576,51,2323.729
-13068,-8372,0,-677,32503,32888,1210.172,2327.612,1207.99,5346,6524,50,2323.436
-13060,-8436,0,-664,32487,32535,1210.155,2328.522,1207.904,5269,6484,89,2323.247
-12976,-8456,0,-713,32936,33288,1210.0,2329.192,1207.973,5267,6464,62,2324.691
-13028,-8396,0,-677,32727,31607,1210.034,2328.436,1208.093,5254,6544,74,2324.502
-12984,-8372,0,-727,32503,33032,1210.137,2328.883,1208.093,5334,6648,78,2324.467
-12960,-8432,0,-636,32615,32407,1209.983,2328.024,1207.973,5233,6612,110,2324.777
-13032,-8336,0,-698,32407,33128,1210.086,2329.072,1208.058,5271,6536,89,2325.687
-13004,-8460,0,-692,32551,32599,1210.103,2330.069,1208.11,5222,6532,98,2325.12
-13028,-8420,0,-681,32215,32295,1210.172,2327.766,1208.144,5208,6552,135,2324.742
-12876,-8488,0,-689,32519,32519,1210.069,2328.746,1207.973,5210,6352,111,2325.017
-12984,-8368,0,-660,32615,33272,1210.137,2328.127,1208.024,5182,6580,92,2325.0
-13052,-8376,0,-663,32856,35032,1210.137,2325.997,1208.024,5239,6500,72,2322.423
-13052,-8396,0,-648,32888,33032,1210.189,2324.313,1208.076,5306,6604,141,2317.56
-12952,-8328,0,-679,32519,32695,1210.069,2323.814,1207.938,5256,6568,80,2319.021
-13028,-8352,0,-676,32423,33080,1210.086,2324.192,1207.973,5208,6576,106,2317.217
-13004,-8428,0,-675,32391,65535,1210.017,2323.866,1207.938,5236,6568,117,2317.234
-13004,-8472,0,-676,32359,33032,1210.172,2324.467,1207.904,5236,6596,113,2316.838
-12964,-8348,0,-679,32631,33112,1210.086,2323.557,1207.99,5266,6432,115,2318.832
-13032,-8432,0,-668,32759,32599,1210.034,2323.625,1208.058,5208,6612,78,2318.454
-13000,-8484,0,-683,32519,32952,1210.086,2324.038,1208.058,5283,6576,83,2317.251
-12944,-8488,0,-687,32615,33144,1210.103,2323.763,1208.024,5258,6484,92,2318.282
-12968,-8484,0,-669,32295,32936,1210.069,2324.725,1208.127,5255,6444,107,2320.498
-12976,-8492,0,-684,32519,32872,1210.12,2325.876,1208.007,5239,6460,124,2319.192
-13016,-8364,0,-651,32231,33064,1210.086,2323.78,1208.11,5231,6440,100,2317.302
-13032,-8444,0,-693,32615,33080,1210.034,2324.57,1208.11,5225,6492,104,2319.175
-12976,-8388,0,-676,32439,33240,1210.069,2327.045,1208.041,5228,6516,123,2319.158
-12996,-8400,0,-669,32679,33272,1210.086,2323.917,1208.007,5225,6400,123,2318.471
-12844,-8412,0,-708,32727,33112,1210.017,2325.258,1208.058,5264,6380,98,2319.983
-13024,-8320,0,-629,32872,33304,1210.189,2326.306,1208.093,5220,6540,92,2320.515
-13056,-8456,0,-706,33432,33064,1209.931,2325.0,1208.23,5225,6616,129,2319.502
-12968,-8404,0,-696,32519,32904,1210.017,2325.223,1208.179,5288,6488,92,2318.883
-13048,-8388,0,-700,32375,33096,1210.137,2325.687,1208.179,5217,6580,107,2319.038
-12944,-8372,0,-671,32519,33032,1210.069,2324.536,1208.058,5210,6540,137,2319.519
-13092,-8420,0,-660,32679,33144,1210.137,2324.725,1207.921,5192,6524,73,2318.952
-13032,-8436,0,-719,32936,33208,1209.966,2324.88,1207.801,5277,6612,96,2318.883
-12876,-8328,0,-752,33064,35576,1210.172,2325.137,1208.333,5416,6436,-5,2319.57
-12968,-8408,0,-618,33176,33720,1210.086,2324.725,1207.921,5186,6612,116,2319.278
-13112,-8364,0,-712,33048,33608,1210.086,2325.326,1207.921,5268,6404,139,2319.502
-13116,-8428,0,-641,32920,33656,1210.086,2323.935,1208.196,5212,6584,123,2319.141
-12852,-8424,0,-657,33064,33752,1210.12,2324.742,1207.938,5227,6504,121,2319.158
-13000,-8432,0,-652,32952,33032,1210.069,2329.141,1207.99,5156,6408,148,2325.137
-12836,-8448,0,-686,33112,33336,1210.086,2330.24,1207.852,5228,6676,81,2325.378
-12972,-8432,0,-640,33032,33320,1210.155,2328.935,1208.024,5245,6536,114,2324.416
-13048,-8400,0,-640,32888,33544,1210.189,2328.797,1207.973,5245,6560,109,2326.254
-12992,-8352,0,-658,32759,36584,1210.258,2324.175,1207.99,5229,6580,133,2316.873
-12948,-8428,0,-685,33496,33976,1210.069,2323.557,1207.973,5303,6564,135,2316.323
-12952,-8364,0,-666,33016,33496,1210.034,2325.172,1208.093,5217,6628,111,2319.158
-13008,-8392,0,-670,32872,33464,1210.0,2324.777,1208.007,5240,6440,96,2316.856
-13120,-8380,0,-675,32743,33224,1210.172,2323.729,1207.99,5259,6540,92,2316.804
-12932,-8416,0,-683,32535,33304,1210.086,2324.433,1208.196,5208,6484,83,2316.615
-13052,-8428,0,-674,32872,33400,1210.0,2323.591,1208.058,5251,6616,88,2316.323
-12956,-8388,0,-650,32599,33272,1210.017,2323.299,1207.852,5202,6504,161,2316.031
-13020,-8484,0,-655,32663,33320,1210.069,2325.172,1207.973,5234,6444,101,2319.158
-12912,-8408,0,-680,32984,33400,1209.983,2324.639,1208.058,5231,6640,109,2317.972
-12972,-8440,0,-662,32599,33352,1210.12,2325.601,1208.007,5242,6540,111,2319.777
-13048,-8388,0,-688,32984,33512,1210.069,2326.392,1207.921,5220,6480,113,2318.935
-13040,-8524,0,-668,33304,33560,1210.034,2324.244,1207.921,5241,6592,111,2318.866
-13052,-8372,0,-650,33000,33544,1210.034,2325.172,1208.127,5177,6632,131,2318.144
-12888,-8312,0,-674,32984,33608,1210.069,2325.55,1208.179,5240,6600,97,2317.835
-13084,-8488,0,-672,33032,33544,1210.086,2324.828,1207.835,5224,6468,123,2318.9
-12920,-8356,0,-638,33144,33720,1210.137,2325.447,1207.955,5244,6644,89,2318.505
-13040,-8464,0,-656,32647,33784,1210.069,2325.395,1207.973,5259,6500,119,2317.629
-12960,-8452,0,-651,33272,33720,1209.983,2324.777,1207.973,5217,6460,103,2320.55
-13004,-8452,0,-659,33400,36728,1210.24,2324.536,1207.921,5236,6564,125,2319.055
-13020,-8440,0,-599,33384,37193,1210.103,2325.515,1207.835,5240,6456,134,2319.209
-12932,-8396,0,-690,33800,36024,1209.966,2324.845,1207.955,5219,6496,200,2318.161
-12964,-8296,0,-717,32599,37161,1210.172,2325.464,1207.973,5121,6720,102,2318.024
-12908,-8388,0,-679,33464,33240,1210.086,2325.275,1207.921,5178,6616,150,2316.976
-13004,-8324,0,-656,33400,34056,1210.223,2323.196,1208.058,5242,6588,96,2316.495
-13056,-8472,0,-710,33112,33768,1210.292,2323.986,1208.076,5230,6504,129,2316.031
-12980,-8492,0,-679,33032,33864,1210.155,2324.416,1207.887,5203,6564,118,2316.529
-12960,-8348,0,-711,33624,34072,1210.103,2323.677,1208.127,4974,6696,275,2317.509
-13040,-8356,0,-678,33048,33944,1210.137,2323.797,1207.904,5127,6540,173,2316.065
-13024,-8456,0,-681,32743,34056,1210.069,2325.12,1208.058,5242,6348,105,2319.295
-13084,-8396,0,-679,33128,34168,1210.258,2324.622,1208.041,5253,6540,65,2318.935
-13016,-8376,0,-683,33272,34136,1210.086,2324.863,1207.869,5209,6468,112,2318.041
-12924,-8472,0,-720,33336,36953,1210.086,2325.67,1207.818,5259,6552,62,2318.265
-12908,-8428,0,-632,33784,34760,1210.0,2324.639,1207.801,5285,6536,61,2318.024
-12932,-8428,0,-662,34008,37561,1210.034,2324.536,1207.783,5235,6536,68,2318.935
-12856,-8384,0,-633,33336,37337,1210.103,2325.292,1207.921,5437,6620,22,2318.041
-12968,-8396,0,-637,33544,34136,1210.189,2324.45,1207.783,5251,6464,94,2317.457
-13020,-8504,0,-746,33432,34088,1210.034,2325.069,1207.852,5261,6724,101,2318.729
-12956,-8388,0,-696,33400,33880,1210.172,2324.811,1207.955,5269,6600,69,2317.801
-13020,-8388,0,-692,33336,33240,1210.069,2323.763,1207.835,5218,6424,113,2317.629
-13032,-8424,0,-684,33288,33576,1210.069,2323.832,1208.419,5261,6460,96,2316.684
-12996,-8492,0,-661,33240,33544,1210.086,2324.192,1207.904,5157,6548,105,2317.938
-12992,-8364,0,-687,33128,33576,1210.189,2323.694,1207.904,5214,6492,128,2316.752
-12988,-8384,0,-652,33304,33704,1210.258,2324.055,1207.818,5222,6448,111,2316.632
-12956,-8364,0,-746,32888,36873,1210.189,2324.055,1207.749,5369,6516,41,2316.615
-12952,-8436,0,-642,33800,34152,1210.189,2323.9,1207.68,5294,6492,22,2315.481
-13024,-8512,0,-665,33800,33624,1210.206,2323.127,1207.99,5334,6508,100,2315.412
-13000,-8468,0,-677,33544,36985,1210.258,2324.038,1208.076,5253,6520,98,2315.155
-13000,-8380,0,-612,33784,36360,1210.206,2323.471,1207.818,5170,6560,74,2316.478
-12984,-8388,0,-656,33384,33848,1210.086,2325.309,1207.955,5271,6552,160,2315.739
-13024,-8412,0,-676,33560,33688,1209.983,2324.45,1207.732,5205,6584,170,2315.962
-12956,-8356,0,-679,33320,33768,1210.034,2323.78,1207.852,5241,6396,114,2316.065
-13048,-8464,0,-713,33112,33896,1210.086,2324.003,1207.973,5249,6508,92,2316.1
-13024,-8284,0,-773,33544,37897,1210.12,2324.725,1207.801,5546,6552,-11,2315.928
-12952,-8428,0,-671,34360,34344,1209.897,2323.402,1207.818,5294,6580,86,2315.704
-12928,-8316,0,-625,34056,34328,1210.052,2323.11,1207.904,5242,6648,134,2315.687
-12944,-8500,0,-666,34216,34648,1209.88,2323.866,1208.333,5212,6544,107,2315.309
-12880,-8404,0,-685,31735,38425,1209.931,2324.845,1208.419,5260,6620,76,2316.357
-12944,-8392,0,-702,31447,38265,1209.863,2324.175,1208.007,5278,6520,113,2316.718
-12960,-8396,0,-661,32359,35448,1210.069,2325.361,1208.007,5228,6492,146,2317.217
-12992,-8488,0,-679,32263,37417,1210.034,2323.935,1208.007,5139,6516,125,2316.77
-12960,-8512,0,-615,31447,33800,1210.086,2324.055,1207.869,5141,6724,202,2316.598
-12924,-8372,0,-710,32215,33416,1210.0,2324.141,1207.921,5271,6600,82,2316.014
-12984,-8392,0,-689,32007,33368,1210.052,2323.54,1208.024,5256,6540,73,2316.856
-12964,-8416,0,-718,31799,32968,1210.052,2323.643,1208.041,5314,6420,117,2316.134
-13112,-8396,0,-691,32183,33240,1210.052,2323.9,1207.973,5248,6684,114,2315.326
-12868,-8360,0,-677,31927,33112,1210.086,2323.213,1207.99,5273,6448,126,2315.498
-13020,-8344,0,-669,31943,33208,1210.103,2323.265,1208.093,5257,6480,79,2315.498
-13036,-8440,0,-677,32343,33448,1210.034,2323.729,1208.058,5227,6572,111,2316.598
-13052,-8312,0,-683,32487,33816,1210.172,2323.505,1208.024,5233,6552,82,2315.636
-13072,-8428,0,-695,32487,33784,1210.172,2323.66,1207.835,5237,6568,112,2315.103
-12948,-8352,0,-717,32759,33896,1210.12,2323.66,1207.749,5289,6404,109,2315.756
-12840,-8448,0,-539,33032,36953,1210.052,2323.385,1207.835,4978,6712,177,2314.897
-12956,-8372,0,-700,32759,37801,1210.052,2322.886,1207.904,5279,6532,84,2315.292
-12884,-8396,0,-606,32535,37081,1210.0,2323.677,1207.921,5106,6648,178,2314.364
-13032,-8512,0,-864,33016,34072,1210.0,2323.454,1208.058,5290,6404,12,2315.636
-12996,-8416,0,-666,32439,33976,1210.017,2323.351,1207.904,5331,6488,18,2315.034
-13020,-8344,0,-717,33128,34568,1209.966,2323.402,1207.887,5192,6420,141,2314.914
-13044,-8368,0,-674,32519,33224,1209.966,2322.406,1207.921,5214,6512,118,2314.811
-12884,-8400,0,-595,32759,34104,1210.12,2323.282,1207.749,5084,6464,52,2315.137
-13000,-8348,0,-671,33144,34056,1210.12,2323.625,1207.904,5240,6652,97,2314.502
-13056,-8432,0,-717,32984,33896,1210.034,2323.385,1207.852,5230,6440,161,2315.67
-12952,-8328,0,-666,32439,33544,1210.137,2323.179,1207.955,5214,6456,124,2315.636
-12932,-8404,0,-661,32872,34168,1210.275,2326.34,1207.921,5263,6536,99,2315.292
-12996,-8344,0,-661,32567,34040,1210.052,2323.952,1208.127,5239,6532,122,2316.065
-13072,-8360,0,-661,32423,34008,1209.983,2323.213,1207.955,5240,6540,124,2315.017
-12964,-8344,0,-682,33208,34056,1210.034,2324.209,1207.835,5249,6660,118,2315.155
-12932,-8376,0,-676,32888,34280,1210.017,2322.749,1207.99,5241,6380,142,2315.12
-13016,-8376,0,-691,33032,34184,1210.103,2323.11,1208.007,5236,6540,109,2314.485
-13032,-8440,0,-690,32936,34104,1210.0,2324.106,1207.921,5245,6524,124,2316.271
-13008,-8360,0,-692,33048,34216,1209.931,2322.612,1207.887,5251,6532,119,2325.155
-12944,-8376,0,-670,32920,34872,1210.086,2329.33,1208.024,5227,6640,99,2324.33
-12988,-8416,0,-639,33384,34568,1210.103,2328.179,1207.852,5245,6456,127,2322.509
-13072,-8368,0,-674,33336,34408,1210.103,2328.127,1207.801,5272,6500,106,2323.986
-13088,-8380,0,-678,33064,34984,1210.103,2328.058,1207.852,5222,6688,117,2323.763
-12980,-8384,0,-675,32695,37209,1210.12,2324.278,1207.904,5279,6576,98,2321.323
-13008,-8372,0,-710,33448,36056,1210.052,2324.605,1207.818,5250,6696,145,2319.072
-12992,-8384,0,-692,33320,34520,1210.103,2324.553,1207.801,5170,6768,123,2317.113
-12956,-8380,0,-656,32535,34600,1210.017,2325.911,1207.698,5227,6552,173,2319.983
-12884,-8320,0,-694,32663,34664,1209.983,2323.591,1208.007,5273,6684,82,2318.78
-12952,-8444,0,-647,32920,34776,1210.206,2324.364,1208.007,5218,6536,126,2317.268
-13000,-8388,0,-671,33032,34664,1210.052,2324.725,1207.818,5222,6532,132,2317.079
-13068,-8316,0,-680,32711,34776,1209.983,2323.66,1207.852,5304,6416,82,2316.237
-13100,-8436,0,-696,32888,34776,1210.189,2323.316,1207.887,5245,6484,134,2316.289
-12928,-8376,0,-674,32984,34856,1210.086,2324.209,1207.852,5203,6512,111,2316.804
-12956,-8476,0,-655,33032,34776,1210.137,2325.103,1207.749,5214,6520,115,2318.952
-12884,-8380,0,-664,32888,34680,1210.189,2325.515,1207.801,5243,6560,105,2319.742
-12872,-8384,0,-725,33304,38041,1210.017,2324.966,1207.749,5497,6684,120,2319.209
-12936,-8384,0,-681,33400,34840,1210.069,2324.966,1207.835,5345,6548,74,2319.278
-12932,-8308,0,-659,33032,34648,1210.0,2325.326,1207.869,5248,6428,124,2319.983
-13036,-8468,0,-647,32695,34600,1210.137,2325.155,1207.887,5247,6656,51,2319.399
-12940,-8392,0,-633,33016,34680,1210.017,2324.966,1207.938,5226,6488,118,2319.828
-12924,-8332,0,-663,33112,34728,1210.052,2324.725,1207.887,5227,6512,122,2319.433
-12932,-8368,0,-647,33032,34712,1210.103,2324.553,1207.921,5226,6596,149,2318.883
-12956,-8464,0,-662,32743,34568,1210.034,2324.485,1207.818,5236,6624,118,2317.577
-13000,-8380,0,-673,33144,34552,1209.931,2324.141,1207.698,5248,6556,95,2317.045
-13072,-8444,0,-656,33000,34824,1210.137,2325.172,1207.783,5217,6476,114,2316.701
-13028,-8368,0,-677,33016,34744,1210.12,2323.832,1207.732,5225,6548,87,2317.199
-12916,-8408,0,-644,33032,34552,1210.052,2323.505,1207.732,5158,6408,114,2316.392
-12840,-8364,0,-660,33032,34792,1210.069,2324.399,1207.698,5212,6628,142,2316.632
-12976,-8448,0,-691,33080,34712,1210.155,2323.677,1207.887,5282,6360,117,2317.234
-13012,-8388,0,-676,33032,34776,1209.983,2324.072,1207.818,5216,6532,110,2317.027
-13000,-8372,0,-691,33528,34680,1210.137,2325.017,1207.904,5246,6508,90,2318.883
-13012,-8384,0,-646,33080,34648,1210.052,2325.206,1207.783,5219,6560,89,2318.935
-12988,-8352,0,-662,33144,34808,1210.103,2325.275,1207.732,5242,6440,99,2318.986
-12916,-8348,0,-669,33400,34744,1210.155,2325.722,1207.766,5232,6608,127,2319.76
-13004,-8392,0,-672,33080,34680,1210.137,2325.24,1207.835,5224,6492,90,2318.952
-12984,-8424,0,-663,33128,34808,1210.12,2325.601,1207.852,5218,6616,105,2318.78
-12984,-8268,0,-719,33480,34824,1210.12,2325.412,1207.732,5264,6488,108,2319.278
-12980,-8440,0,-679,33400,34632,1210.12,2325.052,1207.921,5212,6456,104,2319.089
-13036,-8384,0,-668,33016,34824,1209.777,2327.612,1207.973,5201,6492,132,2327.079
-12984,-8416,0,-683,32759,35000,1210.0,2329.536,1208.385,5182,6604,38,2324.88
-12940,-8320,0,-676,33768,35080,1209.88,2328.557,1207.938,5169,6488,141,2325.223
-13040,-8336,0,-696,33400,35224,1209.897,2329.158,1208.041,5256,6564,97,2325.79
-13016,-8352,0,-671,33544,35144,1209.983,2329.622,1208.093,5252,6584,137,2326.014
-12968,-8372,0,-683,33032,35080,1209.948,2328.179,1207.99,5252,6620,100,2325.172
-12988,-8344,0,-671,32759,34840,1210.0,2328.643,1207.818,5216,6480,151,2325.24
-12960,-8452,0,-677,33080,34664,1210.0,2328.694,1207.783,5215,6588,113,2324.553
-12940,-8420,0,-647,33496,35224,1209.931,2328.952,1207.869,5214,6488,129,2324.347
-12988,-8364,0,-695,33272,34904,1209.966,2327.32,1207.801,5213,6360,105,2322.904
-12836,-8432,0,-696,33128,35032,1209.88,2327.371,1207.955,5227,6488,130,2322.423
-13104,-8424,0,-676,33544,35160,1209.983,2326.907,1207.835,5246,6492,107,2322.835
-13084,-8328,0,-670,33256,35032,1209.845,2326.667,1207.869,5257,6476,94,2322.337
-13016,-8420,0,-667,33448,35064,1209.931,2327.457,1208.024,5211,6556,135,2322.01
-13036,-8372,0,-663,33544,35080,1209.777,2326.804,1207.904,5225,6428,94,2322.302
-13120,-8376,0,-663,33368,35080,1209.948,2326.821,1207.938,5202,6396,141,2322.027
-12944,-8364,0,-652,33384,35080,1209.897,2328.557,1207.955,5213,6368,97,2325.017
-12968,-8328,0,-666,33576,35080,1209.966,2327.44,1207.887,5232,6556,89,2324.622
-13072,-8408,0,-672,33256,35080,1209.948,2328.23,1207.973,5222,6628,113,2324.089
-12992,-8432,0,-711,33528,35048,1209.828,2328.591,1207.887,5263,6520,90,2323.161
-12920,-8356,0,-687,33752,34968,1209.828,2328.368,1207.99,5251,6680,107,2324.003
-13044,-8316,0,-677,33480,35192,1209.931,2328.969,1207.99,5225,6560,115,2325.052
-13000,-8352,0,-679,33464,35080,1209.897,2329.622,1207.955,5190,6508,111,2324.914
-12940,-8360,0,-681,33640,35192,1209.845,2328.849,1208.144,5276,6640,117,2324.983
-13000,-8432,0,-709,33096,35096,1209.759,2328.917,1207.921,5290,6552,119,2324.381
-13000,-8528,0,-675,33032,35144,1209.863,2329.948,1208.007,5277,6620,106,2326.1
-12932,-8352,0,-672,33704,35176,1209.897,2328.625,1207.801,5246,6564,109,2325.894
-13020,-8260,0,-671,33320,35432,1209.914,2328.591,1208.041,5257,6424,68,2325.069
-12880,-8376,0,-667,33496,35288,1209.914,2329.192,1207.835,5242,6456,128,2324.708
-13016,-8336,0,-689,33784,35352,1209.931,2328.213,1208.076,5238,6592,118,2324.227
-12868,-8348,0,-686,33576,35336,1209.897,2327.921,1207.938,5243,6544,96,2322.509
-12964,-8392,0,-699,33144,35384,1209.863,2327.732,1207.904,5229,6496,118,2322.629
-12932,-8344,0,-667,33720,35384,1209.777,2327.406,1207.852,5241,6496,101,2322.886
-12992,-8400,0,-682,33496,35320,1209.759,2327.131,1207.783,5260,6580,124,2322.423
-13064,-8360,0,-679,33800,35256,1209.708,2327.44,1207.887,5224,6528,107,2322.406
-12992,-8352,0,-675,33800,35304,1209.828,2326.838,1207.973,5246,6560,119,2322.852
-12956,-8452,0,-670,33672,35384,1209.88,2328.007,1207.921,5249,6512,115,2324.983
-12964,-8420,0,-657,33768,35256,1209.914,2328.179,1207.766,5223,6636,118,2323.763
-13056,-8392,0,-680,33672,35432,1210.017,2327.457,1207.887,5286,6516,82,2322.56
-13092,-8416,0,-647,33624,35080,1209.777,2328.625,1207.887,5206,6672,140,2323.643
-13032,-8320,0,-702,34056,35416,1209.759,2329.45,1207.921,5177,6596,140,2325.052
-13064,-8404,0,-660,33816,35416,1209.725,2328.746,1207.938,5220,6544,149,2325.034
-12996,-8416,0,-719,33720,35512,1210.017,2328.179,1207.835,5264,6524,90,2324.313
-12952,-8328,0,-696,33832,35448,1209.811,2328.797,1208.058,5225,6504,99,2324.038
-12912,-8332,0,-683,33896,35336,1209.845,2328.024,1208.024,5241,6508,102,2324.433
-13020,-8360,0,-691,33768,35352,1209.708,2328.935,1207.938,5219,6504,110,2324.399
-12972,-8348,0,-693,34008,35496,1209.828,2329.021,1207.835,5254,6688,110,2324.725
-13040,-8320,0,-691,33752,35592,1209.759,2328.574,1207.818,5206,6576,105,2326.186
-13040,-8348,0,-678,33848,35592,1209.742,2327.766,1208.058,5216,6376,118,2323.54
-12956,-8432,0,-689,33848,35384,1209.914,2322.801,1207.852,5186,6512,128,2326.186
-12976,-8412,0,-678,33896,35544,1209.88,2329.45,1207.783,5251,6700,122,2325.429
-13004,-8320,0,-690,33720,35560,1209.983,2329.072,1207.938,5206,6576,109,2325.378
-13024,-8352,0,-685,33768,35592,1209.931,2329.347,1208.058,5232,6408,97,2325.275
-13120,-8420,0,-665,33656,35512,1209.914,2328.333,1208.041,5281,6672,115,2324.57
-13040,-8348,0,-707,33448,35256,1209.897,2328.161,1208.007,5273,6480,111,2324.845
-13020,-8328,0,-676,33512,35624,1210.017,2329.347,1208.076,5221,6428,126,2325.67
-12960,-8408,0,-711,33032,35768,1209.811,2328.78,1207.973,5338,6608,110,2326.134
-13028,-8396,0,-695,33304,35832,1209.88,2328.402,1207.973,5259,6380,59,2324.983
-12888,-8392,0,-677,33384,35848,1210.017,2328.866,1208.007,5230,6576,126,2325.12
-12948,-8408,0,-676,33368,35768,1209.948,2328.385,1207.801,5257,6584,102,2324.845
-13104,-8400,0,-680,33080,35768,1209.88,2328.041,1207.887,5247,6632,95,2323.883
-13040,-8328,0,-694,33128,35640,1209.983,2326.46,1207.869,5218,6512,106,2316.357
-12988,-8360,0,-696,33048,37113,1209.708,2326.443,1207.715,5241,6592,93,2320.292
-13084,-8412,0,-701,34104,35880,1209.897,2323.952,1207.818,5263,6480,136,2318.711
-13012,-8408,0,-669,33784,34856,1209.966,2324.124,1207.869,5209,6460,148,2316.478
-13052,-8384,0,-669,33768,35080,1209.811,2323.282,1207.887,5227,6472,114,2316.907
-12944,-8400,0,-666,33800,35288,1209.674,2323.763,1207.904,5268,6372,100,2316.873
-12936,-8344,0,-657,33912,35384,1209.811,2324.141,1207.99,5213,6564,110,2315.481
-12904,-8380,0,-704,33800,35112,1209.725,2323.729,1207.921,5253,6460,117,2316.804
-12924,-8332,0,-657,34008,35288,1209.845,2323.557,1207.818,5302,6524,102,2317.371
-13028,-8480,0,-670,34024,35256,1209.777,2325.55,1207.818,5225,6576,138,2319.622
-13016,-8412,0,-668,33656,35432,1209.759,2323.711,1207.904,5243,6516,126,2319.261
-13056,-8372,0,-667,33752,35272,1209.674,2325.309,1207.887,5165,6556,110,2318.9
-12940,-8412,0,-673,33800,35352,1209.863,2326.031,1208.024,5254,6528,143,2316.907
-12980,-8448,0,-656,34168,36360,1209.742,2324.072,1207.818,5223,6500,98,2317.766
-12936,-8440,0,-686,34216,36440,1209.674,2323.471,1207.904,5235,6684,113,2316.203
-12940,-8436,0,-657,34472,36216,1209.742,2323.9,1208.058,5312,6580,105,2315.636
-13000,-8388,0,-675,34248,36152,1209.914,2328.058,1207.869,5230,6428,131,2325.326
-12964,-8344,0,-684,34200,36184,1209.914,2329.089,1207.99,5270,6508,94,2325.069
-13032,-8320,0,-684,34280,36440,1209.828,2330.567,1207.938,5251,6576,113,2324.553
-13000,-8424,0,-667,34440,36376,1209.828,2327.406,1207.783,5151,6504,92,2324.588
-12944,-8368,0,-663,34456,36600,1209.845,2327.818,1207.938,5244,6452,133,2322.44
-13072,-8308,0,-685,34472,36424,1209.759,2328.436,1207.869,5253,6512,74,2323.265
-12956,-8364,0,-674,34568,36760,1210.0,2327.577,1208.076,5258,6588,116,2323.007
-12988,-8340,0,-672,34296,36440,1209.931,2327.491,1208.076,5204,6636,166,2323.316
-13048,-8424,0,-664,34360,36008,1209.914,2328.23,1207.783,5145,6592,65,2322.869
-13052,-8320,0,-648,34104,35992,1209.88,2328.127,1207.869,5266,6272,68,2323.797
-12912,-8416,0,-673,34040,35928,1209.983,2329.364,1207.887,5228,6684,108,2326.186
-12944,-8440,0,-682,34024,36136,1209.931,2329.33,1207.783,5222,6612,107,2326.151
-12908,-8412,0,-683,34168,36376,1209.948,2328.625,1207.835,5201,6512,82,2325.997
-13028,-8392,0,-667,34104,36152,1209.88,2328.316,1207.938,5223,6340,137,2325.567
-13040,-8400,0,-682,33336,36104,1209.777,2329.003,1208.041,5210,6592,114,2325.361
-13008,-8432,0,-671,34328,36216,1209.811,2328.54,1208.041,5250,6560,121,2328.024
-13064,-8380,0,-683,34056,36216,1210.034,2328.574,1207.904,5237,6492,111,2327.148
-12956,-8268,0,-650,34136,36248,1209.897,2328.488,1207.973,5240,6620,96,2323.952
-13136,-8476,0,-654,34520,36184,1209.914,2328.385,1207.835,5211,6544,115,2324.106
-12968,-8324,0,-685,34392,36184,1209.811,2328.041,1207.99,5300,6456,115,2323.608
-13032,-8348,0,-658,34584,36136,1209.897,2328.385,1207.973,5251,6464,103,2324.141
-13080,-8356,0,-658,34312,36152,1209.828,2328.23,1207.938,5205,6572,121,2323.832
-12892,-8380,0,-693,34408,35752,1209.948,2328.144,1207.801,5251,6416,121,2323.866
-12972,-8384,0,-673,34008,36120,1209.914,2328.729,1208.024,5244,6700,101,2325.206
-12952,-8368,0,-671,34568,36200,1209.914,2327.423,1207.955,5165,6644,124,2323.866
-12976,-8436,0,-674,34584,35496,1209.931,2328.935,1208.007,5186,6556,122,2323.9
-13056,-8336,0,-683,34568,35288,1210.069,2329.639,1207.818,5213,6652,132,2324.708
-13064,-8284,0,-667,34568,35640,1210.103,2328.041,1207.973,5264,6440,84,2324.845
-13032,-8412,0,-665,34536,35512,1209.845,2328.041,1207.921,5198,6596,97,2324.175
-12984,-8348,0,-644,34568,35688,1209.966,2328.797,1208.161,5213,6472,120,2324.639
-13000,-8344,0,-647,34536,35544,1209.845,2329.502,1207.887,5250,6620,100,2325.378
-13020,-8380,0,-713,34552,35736,1209.88,2327.457,1207.852,5269,6380,137,2323.66
-12996,-8384,0,-645,34584,36184,1209.897,2328.471,1207.852,5211,6504,127,2323.23
-12960,-8328,0,-678,34472,35960,1209.966,2327.388,1208.144,5197,6580,142,2323.333
-13108,-8352,0,-675,34568,35944,1209.777,2327.079,1207.938,5247,6456,109,2322.44
-12964,-8392,0,-670,34648,36216,1209.863,2327.886,1207.783,5239,6524,88,2321.924
-12968,-8372,0,-664,34664,35752,1209.828,2327.234,1207.938,5250,6524,86,2322.096
-13124,-8404,0,-642,34600,35592,1209.777,2327.131,1207.869,5303,6440,65,2322.388
-13048,-8404,0,-687,34568,36104,1209.777,2327.062,1207.783,5283,6568,96,2321.735
-13064,-8408,0,-665,34840,35944,1209.863,2326.924,1207.955,5233,6440,99,2322.045
-12968,-8428,0,-694,34648,35960,1209.725,2327.577,1207.801,5225,6488,128,2322.423
-13056,-8368,0,-669,34856,36088,1209.845,2328.093,1207.766,5243,6480,121,2322.457
-13044,-8348,0,-689,34744,35688,1209.88,2327.268,1207.921,5246,6440,140,2322.182
-13016,-8348,0,-709,34584,35816,1209.863,2326.735,1207.869,5263,6588,106,2322.234
-12992,-8460,0,-688,34568,36056,1209.811,2327.354,1207.887,5264,6476,88,2322.337
-12920,-8312,0,-655,34568,35848,1209.897,2326.649,1207.938,5213,6480,83,2322.217
-12968,-8448,0,-642,34664,35960,1209.845,2326.821,1207.904,5236,6552,135,2322.01
-13036,-8348,0,-662,34760,36168,1209.742,2327.423,1207.955,5205,6416,100,2322.474
-12880,-8372,0,-702,34664,35864,1209.725,2327.01,1208.265,5225,6412,112,2322.423
-13020,-8488,0,-689,34792,36120,1209.777,2326.873,1207.766,5256,6460,101,2322.01
-12944,-8460,0,-698,34728,36104,1209.725,2327.577,1207.921,5247,6552,94,2321.924
-13032,-8404,0,-668,34744,36072,1209.845,2327.217,1207.732,5223,6532,121,2321.89
-12924,-8396,0,-700,34920,36008,1209.931,2327.165,1207.766,5243,6440,98,2322.165
-13020,-8300,0,-680,34568,35960,1209.708,2327.457,1208.024,5222,6456,111,2321.495
-12940,-8460,0,-677,34664,35672,1209.88,2326.89,1207.887,5242,6416,104,2321.787
-12964,-8384,0,-679,34648,35992,1209.777,2326.649,1207.973,5219,6536,113,2321.718
-12920,-8384,0,-680,34600,36008,1209.914,2328.643,1207.99,5196,6496,155,2322.68
-12912,-8420,0,-679,34808,35176,1209.811,2327.165,1207.818,5246,6460,140,2322.354
-13048,-8408,0,-709,34824,36104,1209.914,2326.838,1208.35,5252,6648,108,2322.234
-12944,-8412,0,-666,34776,36056,1210.0,2327.835,1208.436,5232,6520,117,2322.388
-12836,-8388,0,-669,34808,36024,1209.931,2327.251,1207.955,5196,6432,134,2322.388
-13000,-8436,0,-670,34680,36184,1209.914,2327.199,1207.852,5213,6452,154,2322.079
