accel_x,accel_y,fsr_1,gyro_z,fsr_3,fsr_2,ultrasonic_1,ultrasonic_2,ultrasonic_3,gyro_x,accel_z,gyro_y,ultrasonic_4
-13088,-8256,37305,-671,28374,28775,1208.78,2316.77,1208.883,5196,6120,153,2306.787
-13096,-8240,34456,-646,26374,26934,1208.849,2314.072,1209.021,5221,6344,143,2304.966
-12992,-8268,34040,-588,30375,32519,1208.883,2314.811,1208.935,5246,6340,253,2305.223
-13120,-8604,0,-475,12515,1808,1208.917,2314.021,1209.107,5099,5856,-491,2304.88
-12184,-9940,32503,-823,38729,38921,1208.9,2314.966,1209.055,4923,5680,-245,2304.725
-13024,-8692,30711,-635,39353,39625,1208.866,2314.57,1209.055,4969,6288,94,2305.24
-12836,-8744,29719,-641,36953,36889,1208.883,2314.227,1208.935,5251,6364,80,2305.378
-12892,-8684,31351,-740,39673,38281,1208.729,2315.206,1208.917,5324,6344,180,2305.223
-13032,-8660,0,-699,23221,9986,1208.9,2314.502,18.33333,5184,6396,146,2305.55
-12912,-8324,39417,-667,29143,30631,1210.275,2315.361,1208.969,5591,6628,167,2305.137
-12952,-8308,39689,-906,30583,30807,1210.034,2314.656,1208.849,5739,6528,292,2305.292
-13040,-8364,37897,-632,28679,29607,1210.086,2314.966,1209.003,5078,6616,57,2305.429
-13000,-8452,40041,-748,30727,31463,1210.103,2315.447,1208.917,5176,6544,171,2305.275
-13040,-8416,39593,-654,30967,31543,1209.966,2314.742,1208.866,5277,6628,78,2305.773
-13016,-8408,37625,-678,29079,29447,1210.103,2316.151,1208.917,5196,6496,127,2304.897
-12940,-8312,39977,-600,31175,31127,12.93814,2314.811,1208.866,5057,6612,257,2305.275
-12876,-8324,40729,-707,31351,31223,1210.275,2314.794,1208.746,5219,6484,164,2305.447
-12880,-8344,38857,-668,29479,29735,1210.12,2315.773,1208.78,5212,6492,122,2305.55
-12880,-8372,40713,-706,31735,31671,1210.172,2316.615,1208.797,5208,6504,141,2305.636
-12960,-8424,41194,-664,31815,31463,1210.137,2316.1,1208.832,5218,6528,112,2305.739
-12960,-8464,38745,-739,29447,29527,11.56357,2315.447,1208.814,5230,6592,113,2305.808
-12888,-8460,41178,-701,32119,31063,1210.223,2316.512,1208.9,5279,6528,58,2311.048
-12888,-8416,41386,-704,31671,31271,1210.309,2317.354,1208.9,5244,6520,54,2308.402
-12896,-8448,39337,-612,30551,29399,1210.275,2321.718,1208.814,5234,6536,109,2312.096
-12992,-8420,41994,-654,32455,30679,1210.137,2319.983,1208.763,5123,6504,91,8.556701
-12944,-8524,42474,-636,32359,30823,1210.172,2321.392,1208.832,5101,6388,100,2311.563
-12884,-8364,39977,-698,30551,29735,1210.137,2316.014,1208.832,5231,6492,90,2305.739
-12948,-8396,42330,-665,32375,30999,1210.12,2323.591,1209.003,5333,6472,47,2308.625
-13108,-8348,41850,-569,31991,30391,1209.966,2317.234,1208.952,5227,6400,-11,10.25773
-12944,-8424,39529,-734,30215,27270,1210.069,2316.752,1208.832,5351,6456,101,2305.447
-12976,-8388,41530,-720,31799,29879,1210.155,2319.622,1208.952,5453,6456,114,7.783505
-12984,-8396,40825,-678,31831,30151,9.467354,2317.371,1209.003,5319,6496,106,7.800687
-13044,-8340,38745,-677,29943,28759,1209.948,2317.217,1208.797,5237,6484,90,8.47079
-12964,-8392,41322,-671,32023,31399,1210.0,2317.027,1208.729,5190,6608,148,8.453609
-12960,-8456,41690,-732,31975,30839,1210.155,2316.392,1208.591,5255,6440,198,8.625429
-12984,-8476,38921,-714,30471,29463,1210.189,2316.168,1208.694,5264,6724,79,8.316151
-12988,-8428,41914,-707,32151,31527,9.398625,2315.979,1208.66,5122,6568,207,8.402061
-13036,-8460,42330,-752,32407,30871,1209.983,2315.894,1208.917,5380,6384,188,9.432989
-12968,-8416,38633,-683,31671,28006,1210.086,2315.722,1208.66,5265,6584,122,8.831615
-12936,-8412,41706,-766,32936,30727,1210.069,2316.306,1208.814,5273,6580,191,2307.629
-12972,-8436,41978,-715,31959,30983,1210.052,2315.584,1208.78,5293,6600,152,2305.911
-13012,-8356,39737,-707,30967,28935,1210.069,2316.289,1208.917,5311,6384,107,2305.997
-12940,-8440,41594,-682,31959,30999,1210.086,2315.997,1208.986,5083,6652,203,2306.031
-12864,-8388,41962,-672,32183,31223,1210.0,2315.687,1208.883,5241,6536,161,2306.065
-12972,-8384,39545,-687,30903,29191,1210.017,2315.825,1209.003,5246,6564,111,2305.756
-13000,-8372,41834,-664,32231,31223,1209.983,2316.34,1209.467,5247,6592,100,2305.911
-12860,-8344,41786,-682,32423,31079,1210.0,2316.34,1209.124,5262,6552,130,2305.515
-12956,-8416,39481,-674,30263,29095,1210.069,2316.048,1208.591,5242,6464,111,2305.756
-12988,-8472,42026,-677,32263,31255,1209.914,2316.117,1208.625,5148,6576,107,2306.134
-13024,-8412,42074,-680,32519,30519,1209.983,2315.962,1208.625,5240,6592,105,2305.206
-12996,-8324,39785,-658,30711,29431,1210.052,2317.251,1208.832,5226,6560,111,2306.873
-12900,-8348,41898,-692,32295,31255,1210.034,2320.67,1208.677,5249,6440,109,2311.804
-12944,-8460,41978,-687,32295,31495,1210.12,2316.546,1208.66,5228,6720,144,2306.787
-13080,-8448,39993,-672,30583,29703,1210.069,2315.911,1208.883,5216,6492,137,2306.186
-12952,-8484,42042,-683,32183,31383,1210.086,2317.079,1208.9,5197,6612,162,2305.618
-13020,-8336,42266,-666,32519,31511,1210.034,2316.048,1208.797,5177,6480,169,2306.1
-13040,-8392,39769,-671,30199,29543,1210.034,2317.852,1208.694,5168,6552,161,2305.911
-12952,-8352,42250,-648,32471,31479,1210.034,2317.388,1208.78,5201,6592,71,12.30241
-12956,-8340,42170,-709,32439,31655,1210.0,2315.808,1208.832,5260,6480,92,9.175258
-12952,-8392,39769,-664,30679,30391,1210.069,2316.117,1208.677,5172,6492,103,8.831615
-12952,-8376,40745,-634,33624,33032,1210.103,2316.787,1208.711,5401,6596,53,9.054983
-12940,-8436,41738,-732,33032,32872,1210.155,2316.426,1208.866,5325,6508,83,8.762886
-12964,-8500,39609,-673,30983,30391,1210.103,2316.375,1208.608,5242,6472,129,8.762886
-13004,-8360,42298,-650,32535,31095,1210.137,2316.701,1208.522,5263,6480,111,8.762886
-13024,-8396,42250,-657,32551,31191,1210.017,2316.22,1208.591,5245,6540,101,8.745705
-13052,-8348,40121,-680,30567,29367,1210.103,2316.271,1208.694,5237,6488,93,9.278351
-12988,-8412,42650,-664,32872,31399,1209.966,2316.426,1208.643,5196,6524,133,8.848797
-13020,-8456,42602,-675,32567,31399,1210.12,2318.488,1208.866,5209,6596,146,8.797251
-12892,-8384,40313,-674,30551,29447,1210.103,2315.928,1208.505,5214,6568,144,8.831615
-12924,-8440,42250,-653,32519,31191,1209.931,2316.443,1208.694,5204,6588,130,9.261168
-13000,-8480,42362,-685,32471,31319,1210.103,2316.203,1208.591,5246,6468,97,9.226804
-13068,-8340,40201,-656,30679,29495,1210.086,2316.117,1208.643,5277,6500,132,8.780068
-13028,-8416,42682,-671,32487,30903,1210.0,2316.014,1208.711,5242,6580,120,9.278351
-13032,-8412,42458,-661,32551,30999,1210.086,2315.653,1208.677,5213,6656,108,8.831615
-13072,-8332,40441,-688,30439,29031,1210.0,2315.687,1208.763,5239,6448,121,9.261168
-13052,-8376,42554,-699,32471,31191,1210.137,2316.426,1208.78,5215,6628,85,8.814433
-12952,-8388,42490,-670,33032,30999,1210.0,2316.048,1208.883,5186,6396,127,8.814433
-12944,-8432,40377,-684,30807,29143,1210.103,2316.083,1208.935,5227,6484,104,8.848797
-13040,-8300,42522,-666,33800,29687,1210.155,2317.474,1208.694,5219,6596,144,10.01718
-13040,-8408,42538,-655,33240,30839,1210.137,2317.01,1208.711,5181,6516,61,2306.203
-12948,-8412,40633,-673,31207,28791,1210.069,2318.351,1208.608,5290,6636,75,2308.643
-12976,-8376,42970,-697,33368,30727,1210.12,2325.378,1208.66,5288,6464,97,2311.684
-12932,-8308,43002,-668,33544,31287,1210.137,2321.168,1208.643,5230,6508,97,2314.467
-12984,-8376,40569,-705,31863,28823,1210.12,2327.251,1208.591,5246,6380,109,9.639175
-13032,-8384,42842,-728,33576,29815,1210.12,2321.512,1208.488,5313,6372,112,9.553265
-12968,-8464,42714,-682,33064,30007,1210.034,2319.399,1208.608,5239,6580,94,2307.577
-13016,-8440,40217,-647,31031,28070,1210.189,2321.735,1208.54,5270,6440,77,2309.021
-13008,-8436,42762,-666,33400,30039,1210.155,2323.763,1208.677,5236,6460,132,2309.003
-12948,-8280,42746,-698,33000,30007,1210.24,2321.942,1208.505,5257,6544,123,2310.086
-12908,-8416,40425,-694,30919,28422,1209.983,2319.261,1208.729,5220,6648,93,2308.625
-12884,-8440,42746,-682,33544,30631,1210.12,2319.742,1208.505,5212,6488,77,2311.89
-12852,-8276,42170,-862,32872,30999,1210.052,2319.794,1208.505,5825,6528,356,2309.88
-13052,-8384,40233,-695,30935,28935,1210.0,2319.639,1208.557,5332,6656,98,2312.045
-13088,-8388,42762,-699,32759,30247,1210.069,2318.385,1208.625,5192,6428,120,2309.777
-13008,-8364,42426,-682,33016,30231,1210.069,2317.835,1208.711,5227,6396,114,2310.894
-13044,-8332,40377,-692,30983,28438,1210.052,2317.698,1208.505,5225,6588,122,2310.326
-13040,-8472,42746,-656,32727,30407,1210.034,2317.835,1208.505,5282,6476,124,2306.615
-12896,-8332,42730,-652,33032,30439,1210.172,2319.467,1208.643,5278,6480,97,2309.966
-13032,-8416,40185,-664,30631,28406,1210.223,2318.574,1208.54,5242,6392,103,2308.574
-13068,-8508,42730,-678,33032,30471,1209.983,2319.227,1208.454,5230,6632,104,2306.271
-12976,-8380,42554,-700,32567,30231,1210.034,2316.804,1208.574,5235,6480,121,2306.203
-13080,-8432,40185,-686,30679,28390,1209.948,2316.563,1208.608,5258,6564,97,2305.172
-13008,-8332,42650,-677,33272,30471,1209.948,2316.959,1208.625,5250,6568,106,2306.271
-12992,-8352,42458,-675,32920,30439,1210.0,2316.237,1208.66,5288,6320,104,2306.134
-12876,-8396,40505,-696,30935,28662,1210.017,2316.254,1208.608,5217,6540,112,2305.739
-12996,-8324,42682,-661,33448,30487,1209.931,2318.643,1208.574,5258,6552,106,2305.636
-12912,-8412,42650,-658,32631,30439,1209.948,2318.711,1208.557,5236,6596,104,2310.361
-13076,-8364,40409,-655,31159,28887,1209.983,2316.684,1208.574,5270,6464,92,2305.739
-12980,-8452,42602,-662,32888,30695,1209.845,2316.821,1208.711,5209,6588,93,2305.567
-12900,-8460,42778,-649,32695,30519,1209.811,2316.684,1208.832,5256,6476,111,2307.406
-13100,-8432,40345,-667,30983,28775,1209.983,2317.852,1209.175,5239,6520,146,2307.44
-13040,-8344,42426,-673,32888,30631,1209.966,2324.845,1208.591,5226,6508,102,2312.766
-12960,-8440,42666,-647,32759,30471,1210.086,2319.192,1208.488,5279,6412,136,2307.612
-13008,-8400,40441,-698,30983,28791,1210.017,2318.007,1208.54,5257,6592,93,2307.199
-13024,-8472,42762,-686,33032,30535,1209.948,2318.917,1208.643,5288,6588,114,2306.838
-13064,-8364,42762,-689,33016,30727,1210.103,2320.292,1208.591,5199,6452,103,2309.708
-12972,-8412,40377,-695,30903,28935,1210.0,2318.866,1208.522,5274,6456,97,2306.89
-12936,-8360,42762,-647,32199,30551,1210.017,2318.711,1208.35,5225,6644,99,2310.223
-13020,-8460,42762,-676,33048,30583,1210.086,2322.148,1208.505,5285,6572,134,2307.749
-13040,-8412,40201,-677,30999,28775,1210.069,2318.9,1208.643,5227,6552,108,2307.199
-13008,-8492,42538,-694,33096,30887,1210.0,2324.021,1208.746,5241,6572,138,2315.378
-13028,-8408,42490,-686,33144,30983,1210.12,2321.203,1208.66,5177,6408,103,2309.209
-12832,-8352,40297,-670,31015,29207,1210.155,2320.808,1208.694,5240,6556,73,2309.828
-13000,-8336,42810,-669,33144,31031,1209.966,2321.787,1208.522,5253,6488,75,2307.388
-12976,-8328,42266,-691,33016,30679,1210.137,2318.041,1208.677,5194,6536,85,2307.234
-13024,-8364,40313,-690,30967,29271,1210.069,2323.196,1208.677,5275,6460,108,2306.271
-12980,-8348,42570,-677,32743,31095,1210.0,2318.058,1208.591,5252,6460,117,2307.543
-13044,-8480,42682,-673,33064,30967,1209.914,2318.505,1208.832,5279,6620,96,2309.433
-12984,-8460,40441,-664,31031,29127,1210.258,2319.966,1208.608,5260,6468,117,2305.859
-12928,-8412,42762,-705,33576,31015,1210.206,2325.378,1208.608,5225,6340,113,2308.385
-13020,-8316,42730,-692,33144,30951,1210.137,2317.131,1208.522,5238,6452,86,2305.601
-13044,-8360,40537,-672,31847,28967,1210.034,2316.512,1208.66,5166,6460,91,2305.894
-13100,-8420,42874,-634,33544,31143,1210.275,2322.972,1208.505,5181,6612,117,2309.914
-13060,-8484,42602,-648,33336,31271,1210.103,2318.488,1208.488,5221,6400,79,2309.141
-12932,-8428,40409,-653,31207,29095,1210.172,2320.24,1208.677,5216,6628,124,2306.615
-13012,-8432,42922,-698,32984,31495,1209.914,2320.0,1208.935,5282,6544,107,2307.646
-13020,-8408,42218,-678,32471,31607,1210.103,2319.347,1208.711,5266,6464,118,2308.076
-13012,-8460,39737,-681,30439,29735,1209.914,2321.752,1208.608,5187,6404,82,2312.096
-12944,-8320,42426,-693,32519,31607,1209.948,2321.718,1208.66,5230,6620,76,2308.505
-12876,-8424,42330,-660,32551,31559,1210.0,2322.835,1208.625,5249,6536,89,2310.945
-13080,-8424,39945,-689,30711,29879,1210.0,2320.412,1208.78,5232,6468,113,2307.062
-12920,-8476,42650,-670,32727,31863,1210.034,2320.79,1208.625,5226,6588,99,2307.491
-13032,-8444,42714,-661,33272,31271,1209.966,2319.845,1208.54,5204,6512,78,2307.457
-12900,-8412,40185,-656,31399,29815,1209.931,2320.155,1208.694,5111,6608,142,2306.787
-12992,-8424,42426,-680,32567,31751,1209.863,2319.485,1208.488,5239,6508,106,2306.46
-13056,-8504,42618,-665,32888,31799,1209.931,2319.175,1208.557,5248,6620,117,2306.752
-13024,-8384,40441,-683,30871,29767,1209.948,2320.498,1208.643,5234,6468,116,2307.56
-13032,-8428,42730,-653,32888,31319,1209.966,2319.381,1208.574,5201,6456,115,2306.976
-12960,-8328,42714,-703,33048,31671,1210.017,2319.003,1208.591,5224,6568,100,2309.227
-13024,-8528,40313,-674,30775,29127,1209.948,2321.117,1208.78,5250,6612,148,2309.674
-13016,-8340,42714,-678,32984,31207,1209.931,2320.894,1208.557,5262,6408,89,2310.498
-12980,-8380,42762,-675,33032,31495,1209.948,2320.034,1208.419,5215,6616,113,2311.1
-13008,-8332,40249,-709,30983,29447,1210.034,2322.285,1208.625,5230,6464,114,2311.804
-12912,-8468,42666,-665,32519,31415,1210.086,2322.68,1208.608,5209,6588,103,2311.254
-12960,-8420,42714,-668,33048,31319,1209.966,2321.117,1208.643,5245,6588,115,2308.9
-13024,-8372,40377,-679,31159,29703,1210.052,2321.752,1208.54,5239,6560,102,2310.275
-12868,-8448,42746,-671,33032,31351,1209.983,2321.735,1208.625,5229,6568,141,2309.828
-12964,-8456,42634,-668,33016,31495,1209.948,2321.873,1208.591,5242,6488,114,2310.12
-12940,-8360,40313,-660,31191,29687,1210.137,2324.192,1208.574,5207,6516,94,2320.464
-13012,-8388,42394,-669,32936,32007,1210.137,2327.423,1208.591,5287,6556,108,2320.464
-12996,-8456,42730,-689,33096,31655,1210.155,2326.512,1208.625,5252,6616,122,2318.54
-12968,-8444,40521,-690,31223,29623,1209.983,2326.323,1208.522,5266,6616,106,2309.192
-12920,-8368,42778,-682,32551,29943,1210.0,2323.625,1208.454,5237,6464,103,2319.742
-13004,-8380,42970,-676,32695,29879,1210.017,2323.625,1208.557,5266,6640,133,2315.395
-12924,-8316,40889,-630,30983,27910,1210.034,2321.34,1208.488,5122,6780,29,2310.395
-12996,-8420,43274,-664,33064,30023,1210.0,2325.326,1208.814,5160,6588,143,2318.917
-12980,-8456,43274,-645,33112,29959,1210.017,2323.093,1208.746,5218,6456,154,2311.478
-13060,-8276,40665,-654,31159,28118,1210.137,2322.474,1208.385,5178,6572,132,2314.175
-12960,-8424,43018,-664,32952,30311,1210.034,2324.914,1208.488,5236,6400,138,2319.33
-12856,-8364,43018,-669,33368,30167,1209.931,2323.557,1208.66,5231,6576,106,2307.766
-12924,-8440,40649,-680,31127,28534,1209.983,2322.612,1208.402,5249,6592,122,2308.471
-12944,-8424,43018,-649,33032,30311,1210.069,2320.258,1208.557,5250,6556,122,2306.512
-13004,-8392,43002,-668,33800,30407,1210.103,2328.557,1208.677,5190,6692,119,2320.79
-12960,-8448,40649,-679,31367,28198,1210.137,2327.56,1208.488,5220,6636,104,2315.722
-12936,-8396,42986,-707,33480,30231,1210.052,2328.54,1208.522,5201,6576,160,2320.756
-13044,-8392,42714,-683,33752,29959,1210.258,2328.058,1208.608,5215,6576,124,2321.375
-12976,-8432,40713,-697,31223,28550,1209.931,2328.058,1208.694,5260,6536,116,2320.67
-12940,-8496,42362,-642,35256,29143,1210.034,2328.471,1209.192,5193,6516,132,2321.357
-12964,-8084,36969,-936,28422,30471,1209.966,2327.234,1208.625,5709,6480,491,9.690722
-12864,-8712,35560,-644,35816,30007,1210.069,2327.045,1208.54,5374,6088,-198,11.49485
-13072,-8240,40169,-822,35416,31975,1210.069,2327.234,1208.66,3739,6300,348,9.536082
-13056,-8540,41882,-864,34840,28390,1210.017,2327.474,1209.124,4814,6708,508,9.931272
-12932,-8388,38441,-489,33128,30759,1210.052,2327.543,1209.244,4857,6504,-20,10.85911
-13040,-8404,41946,-730,34728,30215,1210.0,2327.869,1209.021,5322,6588,146,9.982818
-12884,-8328,43050,-681,36712,26198,1209.914,2327.096,1209.141,5333,6548,72,10.72165
-13092,-8272,40953,-777,33496,26486,1209.948,2328.454,1209.158,5283,6472,10,2319.674
-13052,-8432,43258,-663,35032,28727,1210.0,2328.024,1209.278,5165,6480,147,2320.567
-13032,-8528,43882,-677,35848,30135,1210.052,2328.093,1209.33,5243,6364,61,2320.172
-12936,-8336,41322,-698,33608,28214,1209.983,2327.251,1209.433,5175,6524,145,2319.124
-13068,-8340,43274,-633,35096,30967,1210.017,2327.371,1209.296,5220,6564,96,2319.553
-12884,-8488,42554,-702,34936,31399,1210.069,2327.199,1209.227,5107,6676,153,2319.072
-13048,-8408,40713,-662,33688,29719,1210.017,2327.182,1209.261,5192,6636,113,2319.742
-13124,-8280,43098,-756,35928,31095,1210.017,2327.457,1209.175,5221,6580,142,2319.966
-13012,-8216,43034,-858,35592,29255,1209.983,2325.361,1209.399,5707,6344,166,10.91065
-12992,-8432,40809,-650,33384,27382,1210.017,2328.454,1209.278,5110,6500,191,10.0
-13036,-8368,43386,-645,35320,29447,1210.103,2327.904,1209.227,5247,6524,62,10.0
-13016,-8376,43290,-702,35080,29527,1209.966,2327.251,1209.158,5226,6504,101,10.42955
-12972,-8384,41130,-684,33112,27158,1210.034,2327.835,1208.574,5229,6512,99,10.39519
-13148,-8324,43610,-662,35096,29815,1210.12,2327.835,1208.643,5220,6648,115,9.948454
-12988,-8328,43322,-694,34568,29639,1210.069,2327.165,1209.124,5221,6548,135,9.948454
-13020,-8400,40953,-667,32984,27510,1210.034,2327.251,1209.192,5233,6520,93,9.948454
-12992,-8416,43626,-702,35160,28951,1210.034,2328.058,1208.608,5219,6500,124,9.982818
-12936,-8292,43338,-694,35144,29543,1209.983,2326.838,1208.557,5282,6468,93,9.931272
-13084,-8336,40841,-685,32743,27542,1210.017,2327.509,1208.66,5197,6508,106,9.931272
-13104,-8384,42906,-667,36520,29479,1210.034,2327.423,1208.591,5266,6548,102,10.72165
-12888,-8472,41978,-652,36360,29959,1210.052,2326.598,1208.608,5099,6556,175,2318.54
-12964,-8412,40185,-680,34264,28422,1210.052,2326.77,1208.643,5092,6504,176,2319.124
-12996,-8324,42602,-649,36344,30071,1210.0,2327.646,1208.694,5232,6428,65,2319.914
-12948,-8368,42858,-666,36184,29623,1210.103,2326.89,1208.814,5266,6524,97,2319.295
-12996,-8440,40553,-698,34104,28150,1210.069,2326.684,1208.677,5206,6548,95,2318.333
-12972,-8268,42762,-657,36536,30215,1210.12,2326.942,1208.711,5265,6444,91,2318.024
-13000,-8368,42970,-652,36056,30039,1210.052,2325.911,1208.763,5168,6476,114,2319.295
-13192,-8392,40873,-679,33784,27926,1210.069,2326.735,1208.54,5250,6564,122,2318.832
-12944,-8440,43130,-704,34728,29799,1210.034,2327.302,1208.522,5290,6348,136,2318.436
-13024,-8320,43450,-658,35592,29303,1210.052,2326.942,1208.505,5219,6524,96,2318.866
-13040,-8376,41146,-694,33448,27398,1210.086,2327.302,1208.505,5294,6392,99,2320.326
-13064,-8380,43194,-687,35256,29335,1210.12,2327.852,1208.557,5253,6512,87,2318.677
-12948,-8440,43306,-676,34872,29719,1210.12,2327.268,1208.333,5222,6468,146,2318.66
-12896,-8376,41162,-708,32856,27910,1210.0,2325.859,1208.368,5219,6524,141,2319.072
-13140,-8380,43642,-682,35000,30039,1209.948,2326.752,1208.488,5259,6472,108,2319.072
-12924,-8444,43578,-666,35160,29687,1209.931,2327.354,1208.677,5275,6712,113,2319.605
-13008,-8376,41562,-684,33144,27990,1209.897,2327.285,1208.54,5241,6528,106,2319.966
-13044,-8344,43818,-654,35240,29591,1210.017,2327.818,1208.763,5180,6492,125,2320.533
-13040,-8448,43802,-687,35000,29287,1209.983,2325.773,1208.643,5209,6752,100,2319.381
-13012,-8312,41674,-674,33256,27990,1210.017,2325.481,1208.643,5246,6496,100,2318.333
-13032,-8412,43802,-657,35256,30375,1210.052,2325.911,1208.591,5229,6580,107,2318.643
-13040,-8404,44090,-694,35528,29527,1209.845,2325.584,1208.471,5232,6384,89,2317.663
-12976,-8436,41738,-676,33240,27878,1209.966,2325.567,1208.471,5119,6528,177,12.80069
-12956,-8440,44074,-625,35608,30215,1210.034,2326.495,1208.419,5254,6508,85,10.08591
-12968,-8444,43786,-604,35272,29911,1210.189,2325.911,1208.454,5304,6580,73,10.56701
-13024,-8312,41450,-654,33032,28166,1210.052,2325.756,1208.574,5258,6584,104,11.03093
-13124,-8340,44058,-688,35080,29751,1209.914,2325.756,1208.505,5192,6516,123,10.46392
-12976,-8344,43834,-659,35592,30183,1210.0,2324.931,1208.488,5173,6468,126,10.44674
-13068,-8516,41658,-669,33144,28598,1209.863,2327.577,1208.471,5198,6516,99,10.97938
-12992,-8496,44010,-655,35480,30119,1209.948,2327.663,1208.608,5189,6404,133,10.49828
-12992,-8432,44282,-668,35352,30327,1209.948,2324.467,1208.385,5254,6412,72,10.54983
-12960,-8376,41738,-658,33304,28422,1210.069,2326.375,1208.677,5213,6400,97,10.54983
-12964,-8404,43834,-696,35288,30135,1210.0,2329.227,1208.814,5226,6460,100,10.10309
-12976,-8336,43818,-700,35480,30391,1209.983,2326.993,1208.436,5185,6536,117,10.56701
-12996,-8368,41642,-671,33464,28470,1210.086,2327.182,1208.557,5251,6552,93,10.53265
-12916,-8336,44138,-686,35416,30391,1209.931,2325.481,1208.643,5207,6476,89,10.56701
-13020,-8492,44122,-697,35432,30375,1210.052,2328.11,1208.797,5215,6500,133,10.49828
-12992,-8280,41706,-681,33368,28086,1210.034,2327.027,1208.625,5231,6300,123,10.70447
-13028,-8412,43978,-688,36200,30471,1210.086,2328.608,1208.746,5358,6436,83,2321.151
-13076,-8356,43370,-670,36504,30567,1210.0,2327.663,1208.471,5269,6604,110,2321.237
-12748,-8388,37753,-722,35080,30215,1209.914,2327.646,1208.729,5289,6388,-24,11.7354
-13020,-8436,40953,-755,36216,32151,1209.948,2327.268,1208.488,4987,6400,55,2320.67
-12876,-8364,42106,-650,35928,30903,1209.931,2327.131,1208.454,5170,6552,184,2320.361
-12964,-8436,40409,-683,33720,29447,1210.12,2327.818,1208.35,5220,6552,122,2321.117
-12920,-8460,42570,-701,35176,30903,1209.948,2326.976,1208.471,5264,6604,94,2319.57
-12988,-8432,43066,-741,36008,29223,1209.983,2326.289,1208.385,5596,6380,29,2317.732
-12984,-8416,41082,-671,33880,27638,1210.034,2329.863,1208.574,5270,6500,71,2322.594
-13064,-8432,43386,-640,36104,29735,1209.914,2328.179,1208.454,5282,6420,84,2320.859
-12996,-8472,43530,-700,35944,29703,1209.948,2327.457,1208.471,5245,6600,63,2320.584
-12988,-8364,41706,-690,34152,28166,1210.069,2327.904,1208.608,5240,6528,102,2320.086
-12972,-8284,43818,-677,35864,29879,1210.155,2327.698,1208.454,5205,6564,115,2323.247
-13064,-8328,43898,-686,36088,29415,1209.863,2327.646,1208.419,5248,6420,86,2321.22
-12956,-8460,41738,-639,33976,27766,1210.0,2327.646,1208.986,5237,6476,109,2319.742
-13008,-8372,44090,-653,36072,29031,1209.897,2329.038,1208.436,5215,6516,132,2322.285
-12856,-8316,43866,-687,35448,29591,1210.086,2331.271,1208.368,5208,6372,102,2325.515
-12912,-8440,41994,-664,33768,27574,1210.086,2329.347,1208.419,5199,6468,138,2323.333
-12964,-8348,44042,-665,35608,29399,1210.12,2330.086,1208.54,5263,6552,102,2321.22
-13016,-8408,44378,-662,35608,29463,1210.052,2328.9,1208.282,5291,6456,88,2324.261
-12956,-8468,42042,-669,33672,27654,1210.086,2325.017,1208.488,5232,6488,128,2321.787
-13040,-8308,44314,-666,35416,29783,1209.863,2328.643,1208.54,5234,6392,102,2321.649
-12956,-8316,44602,-655,35752,29527,1209.983,2327.612,1208.557,5248,6460,86,2322.509
-13008,-8500,42154,-663,33704,27766,1210.017,2327.801,1208.402,5245,6480,120,2319.845
-13012,-8448,44602,-683,35752,29591,1210.017,2328.351,1208.419,5247,6372,92,2320.378
-13000,-8380,44650,-673,35768,29495,1210.052,2327.491,1208.419,5271,6484,108,2319.519
-12948,-8428,42458,-681,33944,27830,1209.966,2327.217,1208.471,5266,6452,99,2320.223
-12996,-8404,44634,-655,35592,29559,1210.052,2326.77,1208.454,5231,6600,78,2321.581
-12972,-8368,44570,-681,35544,29607,1210.034,2326.907,1208.368,5238,6444,87,2315.825
-12928,-8360,42106,-681,33592,27574,1210.086,2326.529,1208.488,5224,6544,152,2318.127
-13064,-8464,44810,-697,35944,29959,1210.103,2327.268,1208.35,5247,6552,108,2318.213
-12944,-8476,44666,-693,35592,29463,1209.966,2326.289,1208.574,5247,6428,133,2321.254
-12944,-8340,42250,-734,33720,27606,1210.223,2327.045,1208.471,5271,6480,125,2318.436
-12912,-8336,44842,-668,35816,29543,1210.052,2326.976,1208.488,5255,6460,116,2318.282
-12900,-8436,44730,-689,35880,29623,1210.137,2325.945,1208.471,5215,6540,87,2319.364
-13096,-8388,42298,-669,33576,27878,1210.034,2326.117,1208.471,5228,6476,114,2317.594
-13028,-8456,44746,-649,36088,29719,1209.983,2326.186,1208.574,5231,6668,189,2318.265
-12996,-8396,44810,-688,36056,28662,1209.948,2325.962,1208.282,5218,6452,92,2317.56
-13044,-8380,42586,-686,33656,27398,1209.966,2327.113,1208.505,5256,6532,110,2318.763
-12988,-8400,44890,-700,35736,29687,1209.931,2326.924,1208.436,5256,6488,130,2318.488
-12932,-8436,44570,-650,36024,29703,1209.863,2327.388,1208.522,5177,6352,123,2318.694
-13032,-8392,42618,-681,33960,27910,1210.0,2326.529,1208.419,5274,6488,62,2319.175
-13008,-8376,44810,-694,35400,30135,1209.863,2327.027,1208.522,5234,6404,123,2319.106
-12980,-8392,44714,-786,35384,30823,1209.966,2326.134,1208.643,5304,6452,147,2318.832
-12992,-8344,42522,-679,33704,28919,1209.966,2326.065,1208.763,5212,6548,87,10.7732
-12980,-8428,44826,-657,35704,30311,1209.914,2326.976,1208.694,5280,6444,104,9.123712
-13008,-8452,44826,-625,35512,29959,1210.086,2326.289,1208.471,5207,6500,104,9.484536
-12976,-8432,42602,-584,33592,29207,1210.017,2326.34,1208.454,5111,6396,125,2318.041
-13044,-8480,44922,-728,35800,29591,1210.069,2326.684,1208.454,5234,6552,83,2318.643
-12956,-8404,44890,-643,35656,29479,1210.034,2326.203,1208.454,5287,6496,94,2319.124
-12956,-8348,42490,-691,33720,27686,1210.103,2325.979,1208.711,5287,6504,45,2318.247
-13032,-8428,44922,-666,35768,29607,1210.034,2327.285,1208.643,5231,6508,113,2318.883
-12948,-8384,44922,-664,35880,29879,1209.914,2326.512,1208.454,5263,6316,105,2319.158
-13004,-8456,42666,-694,33800,27990,1210.086,2326.804,1209.038,5214,6564,103,2318.814
-13108,-8436,44970,-681,35944,30055,1210.017,2328.213,1208.883,5250,6440,128,2318.333
-12904,-8344,45323,-652,35960,29959,1209.948,2326.546,1208.471,5207,6396,88,2318.024
-12992,-8372,42762,-657,33960,28310,1210.052,2326.323,1208.471,5241,6604,90,2318.316
-12912,-8384,45018,-685,35896,30007,1209.931,2327.079,1208.54,5293,6556,85,2318.368
-13032,-8336,45131,-668,35896,30199,1210.206,2326.409,1208.436,5215,6604,126,2318.385
-12972,-8348,42746,-696,33624,28182,1210.103,2327.491,1208.35,5245,6444,76,2318.969
-13020,-8416,44890,-653,36120,29959,1210.0,2327.027,1208.35,5246,6388,72,2319.45
-12920,-8464,45163,-683,36008,30471,1210.017,2326.083,1208.608,5242,6540,65,2318.78
-13032,-8456,42762,-702,33544,28454,1209.863,2326.667,1208.419,5232,6452,131,2320.137
-12932,-8364,45211,-651,35880,30503,1210.034,2327.594,1208.454,5279,6456,92,2318.574
-13064,-8412,45275,-688,35752,30055,1209.966,2326.667,1208.454,5230,6448,141,2318.866
-12948,-8396,42778,-711,33832,28454,1210.086,2326.409,1208.505,5222,6372,91,2318.557
-13012,-8340,45163,-653,36088,30487,1210.069,2327.251,1208.471,5212,6436,118,2318.746
-12896,-8388,45018,-698,35832,30647,1210.086,2327.113,1208.54,5187,6448,115,2318.058
-12944,-8472,41914,-668,32743,29351,1210.0,2325.979,1208.608,5312,6548,74,9.982818
-13080,-8400,44618,-762,35640,30423,1210.086,2326.529,1208.54,5239,6612,123,10.30928
-12992,-8456,44650,-707,35576,31303,1210.069,2327.354,1208.574,5253,6452,90,9.536082
-13012,-8416,42522,-643,33256,29911,1209.948,2326.203,1208.488,5151,6376,134,2317.766
-13028,-8276,44378,-732,34824,31895,1210.052,2326.546,1208.608,5433,6588,85,2318.058
-13008,-8304,44250,-762,35592,29655,1210.017,2326.392,1208.436,5318,6540,99,2320.498
-13024,-8316,41978,-633,33000,27686,1209.931,2326.014,1208.333,5196,6684,118,2317.732
-12956,-8416,44138,-675,35304,29639,1209.914,2327.199,1208.608,5252,6356,97,2318.265
-13004,-8316,44282,-704,35560,29815,1210.086,2325.894,1208.471,5309,6472,73,2318.23
-12972,-8424,42250,-647,33496,28150,1210.017,2327.904,1208.488,5230,6508,107,2319.072
-13020,-8496,44202,-667,35560,29911,1210.172,2327.56,1208.54,5253,6416,69,2318.23
-12992,-8428,44474,-655,35544,30263,1210.103,2327.217,1209.158,5247,6460,106,2318.711
-12960,-8372,42058,-700,33336,28262,1210.206,2326.083,1208.711,5225,6532,116,2318.574
-13036,-8420,44506,-661,35336,30135,1210.155,2324.553,1208.608,5212,6524,107,2318.54
-13032,-8356,44666,-678,35592,29943,1209.948,2323.179,1208.419,5194,6500,123,2312.594
-13008,-8428,42506,-689,33368,28422,1210.052,2327.217,1208.402,5242,6264,103,2320.086
-12896,-8416,44826,-642,35576,30071,1210.034,2325.086,1208.54,5222,6396,103,2318.797
-12992,-8352,44458,-681,35624,29671,1210.103,2327.268,1208.505,5240,6520,92,2318.591
-12888,-8408,42266,-700,34024,28342,1210.172,2327.509,1208.454,5236,6440,92,2317.818
-13012,-8368,44426,-672,35544,30103,1210.034,2325.962,1208.402,5213,6496,107,2320.739
-12928,-8380,44522,-682,35368,30215,1210.052,2327.217,1208.436,5256,6440,102,2320.653
-12968,-8448,42362,-637,33592,28406,1210.0,2327.251,1208.316,5208,6516,116,2320.189
-13028,-8468,44730,-682,35352,30295,1210.189,2327.491,1208.436,5249,6584,115,2318.505
-12892,-8436,44810,-662,35592,30407,1209.966,2326.959,1208.505,5188,6464,127,2319.502
-12976,-8372,42330,-667,33464,28390,1210.017,2326.598,1208.385,5206,6648,83,2315.378
-13004,-8396,44762,-682,35448,30487,1210.034,2326.649,1208.488,5208,6600,86,2320.911
-13004,-8456,44730,-708,35416,30471,1209.948,2327.199,1208.402,5220,6496,160,2319.209
-13084,-8356,42554,-689,33752,28887,1209.948,2326.873,1208.333,5249,6372,93,2319.433
-13008,-8336,44698,-706,35704,30791,1210.034,2326.976,1208.471,5248,6544,133,2318.058
-12960,-8412,44810,-658,35832,30487,1209.983,2326.718,1208.282,5209,6556,140,2318.763
-12976,-8360,42298,-678,33544,28759,1209.811,2327.886,1208.385,5218,6556,139,2319.313
-13028,-8376,44922,-622,34888,30551,1210.052,2328.11,1208.419,5216,6592,94,2320.722
-12964,-8328,44810,-691,35544,30695,1209.983,2327.113,1208.454,5242,6656,128,2319.674
-13048,-8440,42458,-672,33752,28823,1210.0,2327.526,1208.454,5229,6448,91,2319.948
-12936,-8388,44922,-672,35800,30471,1209.983,2327.423,1208.54,5195,6544,139,2319.811
-13020,-8412,44794,-670,35832,30551,1209.983,2326.34,1208.54,5223,6544,114,2319.57
-12920,-8436,42618,-648,33640,28759,1209.863,2327.491,1208.471,5209,6476,87,2320.155
-12944,-8392,44938,-687,35672,30631,1210.069,2328.041,1208.436,5254,6468,126,2320.189
-12996,-8432,44714,-695,35656,30519,1210.0,2325.876,1208.763,5215,6452,126,2317.577
-12912,-8412,42586,-682,33512,28614,1210.069,2326.031,1208.436,5239,6456,148,2317.663
-12964,-8360,44810,-667,35608,30679,1209.983,2326.203,1208.557,5203,6596,104,2318.9
-13004,-8280,44698,-702,35592,30519,1209.914,2326.083,1208.488,5212,6488,105,2318.144
-13024,-8488,42554,-694,33800,28679,1209.966,2326.392,1208.522,5259,6516,125,2318.161
-12928,-8320,44826,-688,35368,30551,1209.948,2326.856,1208.608,5258,6492,125,2318.763
-12996,-8388,44922,-667,35880,30423,1209.983,2326.271,1208.574,5258,6484,94,2318.351
-13120,-8340,42250,-653,33480,28791,1209.863,2326.014,1208.608,5198,6468,90,2318.247
-13056,-8388,44746,-653,35608,30631,1209.983,2326.873,1208.471,5231,6572,122,2318.711
-12968,-8432,44810,-678,35672,30487,1210.017,2326.22,1208.591,5217,6456,119,2318.471
-13064,-8396,42250,-686,33640,28582,1209.966,2326.478,1208.368,5224,6484,124,2319.467
-12968,-8376,44666,-654,35848,30583,1210.034,2327.766,1208.35,5214,6656,120,2319.605
-12992,-8372,44714,-687,35816,30727,1209.931,2327.474,1208.402,5198,6672,129,2319.553
-12976,-8364,42394,-675,33544,28903,1210.052,2327.131,1208.471,5181,6496,153,2319.141
-13028,-8308,44650,-678,35880,30487,1210.086,2326.856,1208.385,5269,6512,91,2319.106
-13024,-8376,44474,-694,35768,30551,1209.897,2327.337,1208.471,5234,6468,104,2319.605
-12988,-8320,42298,-683,33704,28679,1209.948,2327.096,1208.299,5286,6516,105,2319.33
-13096,-8320,44602,-649,35832,30615,1210.052,2327.251,1208.505,5225,6444,96,2320.344
-13020,-8492,44474,-664,35608,30583,1210.0,2328.024,1208.299,5213,6480,85,2319.433
-13024,-8408,42282,-667,33688,28630,1210.052,2327.045,1208.419,5286,6556,102,2319.003
-13100,-8428,44410,-643,35608,30647,1210.0,2327.646,1208.368,5234,6512,90,2319.055
-12980,-8492,44282,-687,35768,30407,1209.914,2326.323,1208.419,5234,6580,114,2319.536
-12996,-8364,42266,-682,33560,28855,1209.931,2327.285,1208.368,5273,6532,104,2320.12
-13032,-8432,44410,-679,35736,30551,1209.863,2327.543,1208.402,5247,6280,91,2320.017
-12964,-8460,44282,-670,35560,30615,1209.983,2327.491,1208.333,5241,6540,109,2320.12
-12984,-8336,42106,-679,33512,28871,1210.0,2328.505,1208.299,5233,6552,99,2320.429
-13084,-8384,44570,-674,35544,30711,1210.034,2327.68,1208.316,5244,6428,114,2319.158
-12976,-8324,44666,-675,35704,30711,1210.034,2326.581,1208.454,5233,6568,115,2319.295
-13040,-8276,42266,-677,33800,28935,1210.069,2326.34,1208.333,5276,6476,78,2319.192
-13024,-8384,44314,-677,36024,30903,1210.0,2328.093,1208.471,5242,6440,112,2318.179
-13108,-8388,44522,-670,35768,30839,1209.931,2326.186,1208.608,5221,6556,115,2318.041
-13132,-8424,42138,-670,34056,28983,1209.966,2325.911,1208.557,5211,6600,125,2318.007
-13016,-8372,44330,-700,35064,30967,1209.966,2326.495,1208.488,5239,6480,113,2320.155
-13000,-8412,44602,-677,35896,30903,1210.086,2326.632,1208.557,5251,6512,154,2319.622
-12964,-8364,41994,-724,33800,28935,1210.137,2326.976,1208.368,5243,6468,124,2319.003
-13036,-8352,44554,-691,35816,31031,1209.966,2327.886,1208.385,5238,6476,89,2319.399
-13020,-8396,44202,-659,35816,31031,1209.88,2327.182,1208.471,5248,6504,85,2320.464
-13008,-8328,42266,-694,33880,29095,1209.948,2327.56,1208.557,5207,6416,89,2320.773
-13108,-8348,44442,-664,35848,30983,1210.137,2328.935,1208.488,5254,6552,104,2321.22
-13068,-8324,44362,-681,35816,30983,1210.103,2328.058,1208.436,5251,6396,124,2321.031
-12992,-8460,42026,-675,33720,29223,1210.034,2328.024,1208.574,5225,6564,140,2321.667
-13084,-8400,43994,-677,35848,31015,1210.034,2328.883,1208.883,5211,6476,125,2320.429
-13032,-8400,44266,-663,35960,31127,1210.0,2327.302,1209.107,5225,6392,133,2320.704
-13052,-8304,41994,-659,33832,29367,1209.966,2327.921,1209.158,5288,6604,63,2320.928
-13004,-8396,44458,-664,35832,31063,1210.086,2328.196,1208.832,5209,6588,96,2320.842
-12980,-8372,44282,-676,36008,31319,1210.275,2327.612,1208.368,5283,6516,107,2320.292
-13020,-8400,41850,-680,33816,29415,1210.052,2327.268,1208.454,5218,6584,88,2320.189
-13016,-8388,44410,-694,36008,31287,1210.034,2328.866,1208.522,5255,6524,114,2321.667
-13036,-8368,44218,-692,35704,31687,1210.034,2327.526,1208.591,5249,6408,92,2321.289
-12984,-8360,42106,-665,33912,29447,1209.931,2327.869,1208.54,5236,6460,112,2321.306
-13008,-8396,44186,-684,35752,31447,1209.897,2328.608,1208.265,5230,6448,130,2321.203
-12964,-8388,44346,-659,35848,31495,1209.828,2327.955,1208.196,5234,6372,134,2321.22
-13096,-8360,41978,-650,33944,29543,1210.069,2327.921,1208.385,5163,6408,142,2321.237
-13028,-8412,44138,-667,35752,31479,1210.069,2328.969,1208.282,5187,6388,112,2321.1
-13044,-8396,44282,-699,35928,31463,1210.103,2326.598,1208.213,5246,6544,125,2319.57
-12912,-8328,41978,-666,33752,29671,1210.103,2326.151,1208.385,5237,6308,112,2319.072
-13008,-8444,44474,-656,35960,31447,1209.845,2326.598,1208.333,5218,6420,102,2318.849
-13056,-8360,44330,-677,36376,31543,1210.0,2326.237,1208.385,5241,6556,100,2322.801
-12964,-8384,42042,-674,33912,29447,1209.931,2328.419,1208.333,5241,6424,99,2322.612
-13048,-8464,44474,-658,35960,31383,1210.052,2329.089,1208.213,5196,6448,126,2322.423
-12964,-8412,44074,-683,36104,31495,1210.0,2328.557,1208.213,5183,6468,118,2322.165
-13000,-8408,42202,-661,33976,29351,1210.034,2329.863,1208.213,5232,6472,123,2323.832
-12956,-8328,44234,-649,36008,31511,1210.086,2330.017,1208.282,5195,6424,87,2323.196
-12968,-8384,44218,-661,35976,31175,1210.034,2329.295,1208.299,5210,6524,110,2324.244
-12948,-8304,41994,-696,34072,29607,1210.017,2329.381,1208.247,5234,6516,107,2323.608
-13028,-8436,44298,-657,35960,31063,1210.069,2329.948,1208.299,5237,6432,89,2323.419
-13020,-8476,44554,-701,36152,31207,1210.034,2329.072,1208.35,5245,6696,100,2322.577
-13080,-8456,42106,-687,34008,29287,1209.983,2328.076,1208.35,5236,6620,101,2320.67
-13048,-8320,44378,-676,35800,31047,1210.0,2328.66,1208.454,5234,6520,138,2321.271
-12988,-8408,44298,-648,36008,31223,1210.052,2327.938,1208.54,5232,6536,87,2321.409
-13064,-8476,41818,-702,33880,29271,1210.103,2328.729,1208.54,5224,6520,84,2323.368
-13024,-8420,44410,-685,35944,31015,1210.086,2329.209,1208.385,5262,6640,116,2322.663
-13108,-8384,44346,-635,35672,31095,1209.931,2328.849,1208.574,5255,6500,90,2322.509
-13072,-8412,41994,-710,33816,29399,1209.897,2328.66,1208.402,5259,6416,120,2321.907
-12936,-8352,44362,-670,35880,31063,1210.069,2329.656,1208.436,5206,6408,120,2322.646
-12972,-8448,44138,-670,35832,31031,1210.034,2329.055,1208.436,5242,6668,113,2322.594
-13068,-8292,41994,-671,33896,29287,1210.086,2328.746,1208.333,5221,6452,131,2322.354
-13040,-8368,44346,-692,35816,31143,1209.966,2329.519,1208.608,5208,6704,116,2322.491
-12956,-8276,44170,-675,35976,31063,1209.948,2329.416,1208.299,5265,6592,116,2323.694
-13024,-8512,41994,-695,34024,29271,1209.966,2328.986,1208.299,5257,6420,102,2322.474
-13100,-8368,44154,-687,35800,31143,1209.966,2329.57,1208.316,5251,6564,128,2322.096
-13024,-8408,44074,-670,35960,30775,1210.069,2328.522,1208.316,5211,6532,91,2321.46
-13004,-8380,41706,-674,33848,29223,1209.966,2329.055,1208.368,5243,6496,97,2322.818
-13020,-8464,44266,-680,35944,31079,1209.983,2329.141,1208.213,5202,6576,89,2322.182
-13060,-8352,44042,-682,35960,31079,1210.017,2328.299,1208.127,5221,6436,122,2321.752
-12968,-8432,41786,-648,33816,29223,1210.069,2328.711,1208.213,5249,6400,81,2322.062
-13096,-8388,44282,-681,36072,31063,1209.828,2327.612,1208.282,5234,6448,90,2321.134
-13032,-8408,44218,-689,35960,31527,1209.88,2327.594,1208.23,5239,6556,111,2320.189
-13044,-8348,41770,-682,33944,29239,1209.914,2326.856,1208.488,5276,6548,90,2320.687
-13020,-8468,44026,-673,35976,31223,1209.948,2328.265,1208.265,5247,6488,105,2320.533
-12992,-8280,43786,-688,35640,31159,1209.931,2326.873,1208.144,5261,6456,99,2320.326
-12964,-8352,41338,-686,33880,29223,1209.966,2326.873,1208.213,5234,6480,103,2320.275
-12912,-8348,43962,-680,35880,31095,1209.914,2329.021,1208.299,5271,6524,108,2321.735
-13060,-8356,43770,-668,35848,31127,1209.966,2328.333,1208.11,5215,6472,87,2321.271
-12936,-8400,41706,-674,33800,29175,1209.983,2327.869,1208.299,5221,6496,119,2320.928
-13040,-8444,43914,-671,36344,31271,1209.863,2328.196,1208.282,5188,6444,115,2320.481
-13000,-8368,43434,-663,35880,31415,1209.828,2327.268,1208.282,5214,6392,101,2320.533
-13044,-8396,41402,-686,33896,29351,1209.811,2327.062,1208.247,5218,6452,139,2319.811
-13036,-8400,43354,-674,35944,31255,1209.759,2327.99,1208.213,5247,6584,101,2320.773
-13064,-8332,43882,-698,35752,31351,1209.88,2327.251,1208.402,5243,6404,92,2321.237
-12864,-8452,41498,-684,34056,29447,1209.931,2327.766,1208.247,5262,6552,105,2319.897
-12956,-8404,43578,-688,35944,31239,1209.914,2327.955,1208.35,5234,6548,101,2320.378
-12960,-8368,42714,-675,36120,31207,1210.017,2327.663,1208.316,5201,6468,135,2320.206
-12896,-8432,41722,-645,34024,29447,1210.0,2327.217,1208.316,5197,6492,123,2320.773
-12892,-8348,43610,-688,35704,31351,1209.931,2328.557,1208.35,5246,6480,118,2321.77
-13040,-8320,44106,-666,35880,31335,1209.931,2327.99,1208.471,5241,6496,119,2320.292
-13000,-8380,41770,-663,33880,29639,1209.777,2327.766,1208.35,5203,6584,133,2320.722
-13004,-8364,43818,-644,36120,30839,1210.0,2327.182,1208.436,5208,6576,126,2319.708
-12964,-8368,44266,-689,36088,31495,1209.845,2327.698,1208.454,5247,6436,106,2320.55
-13052,-8388,41770,-683,33912,29927,1209.983,2327.509,1208.385,5269,6552,98,2320.309
-12920,-8344,43930,-664,35992,31447,1209.931,2327.543,1208.23,5289,6384,92,2320.378
-13024,-8404,44026,-666,35848,31495,1209.811,2327.302,1208.144,5270,6476,117,2321.357
-13004,-8380,41194,-705,33960,29463,1209.811,2327.32,1208.23,5240,6416,110,2319.948
-13100,-8340,44042,-683,36072,31287,1209.914,2327.268,1208.179,5242,6500,96,2320.017
-12916,-8284,44074,-671,35384,32007,1209.897,2326.993,1208.23,5229,6388,107,2319.295
-13040,-8396,41562,-642,33960,29559,1210.052,2326.632,1208.247,5208,6548,93,2319.106
-12992,-8380,43818,-699,36536,31223,1209.863,2327.251,1208.471,5231,6536,112,2319.708
-13048,-8340,43802,-674,36040,31495,1209.914,2326.237,1208.471,5317,6448,17,2318.608
-12948,-8328,41738,-663,34056,29447,1209.777,2326.667,1208.282,5244,6372,85,2322.302
-13044,-8332,43754,-653,35848,31335,1209.88,2328.213,1208.213,5276,6512,88,2321.529
-13028,-8312,44042,-677,35800,31415,1209.88,2327.629,1208.333,5206,6712,134,2322.371
-12912,-8356,41658,-672,33720,29703,1209.914,2327.388,1208.213,5255,6628,97,2321.186
-12988,-8404,43962,-669,35944,31575,1209.897,2326.856,1208.23,5234,6404,56,2319.433
-12964,-8380,44010,-666,35592,31463,1210.034,2326.186,1208.265,5235,6564,99,2320.12
-13156,-8416,41834,-687,33912,29847,1209.863,2326.684,1208.213,5254,6548,89,2319.433
-12960,-8420,43754,-657,35960,31447,1209.845,2326.77,1208.419,5271,6380,95,2319.536
-13016,-8388,44026,-675,36024,31287,1209.948,2326.615,1208.213,5201,6536,97,2319.45
-12996,-8424,41690,-672,34392,29559,1209.931,2326.323,1208.488,5210,6400,94,2319.158
-13024,-8360,43786,-697,35912,31287,1210.017,2328.093,1208.282,5221,6444,104,2321.718
-13048,-8448,43898,-668,35848,31415,1210.0,2328.402,1208.161,5238,6340,111,2321.856
-13124,-8452,41418,-694,34024,29495,1210.034,2327.886,1208.316,5228,6508,80,2321.134
-12996,-8324,44026,-678,36040,30583,1209.983,2328.574,1208.299,5226,6360,121,2320.979
-12972,-8384,43786,-685,36552,31159,1210.086,2326.134,1208.385,5213,6532,132,2318.66
-12980,-8380,41466,-664,33976,29079,1210.12,2325.756,1208.247,5216,6516,135,2318.763
-13016,-8300,43898,-671,36104,30855,1209.88,2325.825,1208.454,5206,6552,115,2317.715
-12892,-8352,42938,-664,36136,30759,1210.0,2325.618,1208.574,5203,6424,114,2318.041
-13140,-8276,40377,-698,33864,28919,1210.0,2326.34,1208.385,5227,6532,85,2317.715
-13036,-8412,43786,-664,35992,30471,1209.914,2326.375,1208.368,5235,6444,120,2318.024
-12952,-8372,43258,-692,36056,30983,1210.103,2325.79,1208.35,5210,6420,81,2318.935
-13024,-8404,41290,-687,33896,29031,1209.914,2326.615,1208.54,5215,6392,107,2320.0
-13048,-8292,43450,-675,35960,30743,1209.725,2327.68,1208.419,5213,6472,89,2319.76
-12944,-8384,43130,-674,36120,30919,1209.88,2327.474,1208.35,5241,6336,83,11.11684
-12996,-8360,41226,-684,34072,28951,1210.086,2327.096,1208.711,5236,6488,117,2320.189
-13044,-8280,43450,-680,36024,30807,1210.0,2327.886,1208.557,5229,6572,106,2318.144
-13024,-8360,43370,-670,36104,30983,1209.914,2326.186,1208.436,5246,6440,90,2318.66
-12932,-8348,41418,-656,34056,29111,1210.052,2326.598,1208.368,5244,6532,118,2318.368
-12996,-8364,43562,-697,36152,30839,1209.966,2329.227,1208.265,5260,6536,82,2321.426
-13084,-8452,43466,-667,36120,30711,1210.069,2328.574,1208.419,5232,6460,116,2321.323
-12980,-8340,41450,-652,34152,28935,1210.086,2328.265,1208.333,5219,6388,118,2321.46
-12996,-8352,43450,-658,36024,30583,1209.966,2328.969,1208.436,5231,6424,120,2321.203
-12944,-8364,43642,-693,35960,30711,1209.948,2328.333,1208.247,5212,6624,96,2321.529
-13092,-8396,41322,-676,33912,28983,1210.069,2327.526,1208.832,5242,6468,130,2319.897
-13032,-8352,43514,-720,36104,30535,1210.034,2327.079,1208.333,5275,6436,32,9.347079
-12924,-8360,43546,-678,36120,30647,1210.034,2327.027,1208.299,5237,6516,118,8.522337
-12924,-8388,41306,-669,34152,28871,1209.966,2326.89,1208.35,5228,6608,88,2319.777
-13020,-8340,43770,-661,36280,30871,1209.88,2327.818,1208.299,5202,6648,112,9.604811
-13068,-8328,43738,-701,36280,30519,1210.069,2327.698,1208.66,5229,6576,117,7.852233
-12980,-8304,41434,-696,34056,28791,1209.897,2327.594,1208.54,5210,6620,94,8.298969
-12976,-8324,43626,-684,36184,30551,1209.983,2328.608,1208.247,5239,6572,92,8.298969
-13000,-8312,43690,-661,36184,30631,1210.052,2327.44,1208.265,5217,6460,106,7.852233
-13088,-8316,41306,-637,34040,28679,1210.086,2327.44,1208.247,5249,6480,98,9.19244
-12992,-8400,43626,-685,36152,30471,1210.206,2329.175,1208.265,5270,6536,108,8.298969
-12988,-8396,43738,-651,36104,30663,1209.983,2328.454,1208.35,5220,6452,127,8.264605
-13056,-8388,41274,-673,33960,28727,1210.0,2327.99,1208.454,5274,6368,96,9.175258
-12944,-8336,43786,-700,36296,30583,1209.948,2328.814,1208.247,5231,6376,120,8.316151
-13056,-8412,43610,-691,36104,30471,1209.966,2328.144,1208.35,5220,6468,132,8.264605
-13072,-8328,41274,-671,33944,28598,1209.948,2328.196,1208.368,5189,6492,106,9.19244
-13072,-8412,43562,-658,36072,30407,1210.034,2329.399,1208.299,5208,6528,132,8.264605
-13028,-8372,43754,-649,35832,30503,1209.914,2328.643,1208.333,5220,6388,109,8.333333
-13044,-8424,41626,-662,34216,28679,1209.914,2326.89,1208.35,5240,6488,100,8.728522
-13008,-8416,43626,-702,36120,30487,1210.0,2327.423,1208.144,5249,6360,92,8.728522
-12976,-8356,43866,-658,36200,30471,1209.914,2326.752,1208.333,5234,6380,107,2319.158
-13064,-8344,41482,-645,34104,28791,1209.794,2326.993,1208.333,5260,6512,101,2320.12
-13128,-8340,43818,-692,36104,30759,1209.845,2327.972,1208.247,5239,6432,83,2320.155
-13020,-8416,43770,-694,36056,30679,1209.897,2327.199,1208.282,5240,6412,137,2319.295
-13088,-8408,41434,-695,33976,28727,1209.845,2327.491,1208.247,5230,6488,99,2320.103
-13084,-8380,43562,-664,36104,30711,1209.983,2327.715,1208.299,5243,6436,114,2320.275
-13156,-8340,43498,-675,36200,30567,1209.845,2326.323,1208.35,5258,6400,123,2319.141
-12968,-8420,41434,-650,34008,28679,1210.017,2326.409,1208.247,5185,6436,107,2319.003
-13000,-8300,43546,-692,36248,30839,1209.931,2328.625,1208.179,5263,6452,92,2320.979
-13004,-8416,43306,-658,36184,30759,1210.034,2327.32,1208.368,5215,6524,128,2320.206
-13096,-8420,41194,-704,34472,28855,1209.897,2327.406,1208.368,5226,6408,193,2320.911
-13040,-8296,43514,-708,36344,30519,1209.931,2328.883,1208.144,5264,6576,106,2323.144
-13136,-8320,43738,-674,36120,30775,1209.966,2328.917,1208.179,5261,6400,105,2322.68
-12980,-8384,41482,-672,34008,28727,1209.931,2328.333,1208.161,5230,6504,142,2322.096
-13044,-8388,44026,-645,36824,29703,1209.966,2328.643,1208.316,5222,6384,104,2321.529
-12932,-8448,43386,-642,35928,29863,1209.845,2326.649,1208.316,5265,6432,143,2319.639
-12996,-8376,40841,-658,34392,28054,1210.034,2325.876,1208.265,5273,6468,81,2319.192
-12952,-8380,43258,-675,36216,29815,1210.137,2328.179,1208.23,5279,6424,94,2320.894
-13044,-8320,43258,-658,36312,30055,1209.948,2327.302,1208.282,5258,6420,136,2321.134
-12956,-8304,40921,-696,34168,28422,1210.017,2327.56,1208.454,5216,6392,132,2320.429
-12988,-8392,43370,-702,36216,29991,1209.948,2328.316,1208.368,5227,6472,121,2320.722
-13012,-8432,43466,-666,36312,30199,1209.811,2327.646,1208.161,5246,6480,108,2320.309
-12960,-8408,40953,-682,34264,28518,1209.863,2327.354,1208.247,5249,6488,88,2322.199
-13052,-8324,43546,-673,36328,30439,1209.845,2328.986,1208.505,5201,6376,83,2321.615
-13100,-8276,43514,-711,36440,30231,1209.88,2328.333,1208.419,5231,6544,100,2321.186
-13136,-8352,40953,-668,34296,28502,1210.12,2328.643,1208.299,5200,6636,134,2321.203
-13080,-8388,43034,-650,36440,30375,1209.811,2328.471,1208.282,5229,6572,113,2320.361
-13116,-8432,43274,-715,36504,30327,1209.914,2326.89,1208.11,5260,6520,74,2320.687
-12968,-8300,41386,-665,34328,28454,1209.897,2328.969,1208.488,5247,6424,125,2322.131
-13060,-8348,43514,-664,36312,30439,1209.914,2326.77,1208.299,5260,6448,121,2318.488
-12984,-8316,43626,-698,36536,30471,1209.983,2326.065,1208.196,5254,6576,87,2319.192
-13000,-8344,41178,-675,34200,28518,1209.845,2326.186,1208.127,5261,6484,99,2318.78
-12960,-8332,43290,-669,36376,30711,1209.828,2326.942,1208.196,5247,6496,95,2318.574
-12964,-8368,43450,-666,36312,30583,1209.88,2326.942,1208.161,5200,6712,108,2318.969
-12996,-8444,41514,-664,34408,28903,1210.017,2326.959,1208.436,5227,6556,155,2319.381
-13064,-8424,43802,-695,36568,30759,1209.983,2328.419,1208.161,5242,6520,122,2320.704
-12984,-8444,43642,-675,36264,30983,1209.914,2326.856,1208.11,5254,6536,104,2323.505
-13000,-8444,41178,-649,34200,29015,1209.948,2327.01,1207.955,5234,6584,129,2322.371
-13000,-8324,43354,-693,36392,30743,1210.034,2328.299,1208.007,5250,6508,82,10.0
-13044,-8328,43274,-653,36536,30951,1209.914,2327.131,1208.179,5231,6480,110,8.264605
-12984,-8412,40633,-671,34376,28935,1209.931,2327.131,1208.127,5237,6540,105,8.247422
-12996,-8376,43482,-692,36600,30759,1210.0,2329.88,1208.35,5260,6532,109,9.123712
-13036,-8340,43386,-695,36536,30823,1209.931,2329.983,1208.265,5243,6516,113,9.604811
-12924,-8420,41178,-688,34328,28967,1209.828,2331.048,1208.35,5257,6436,111,8.47079
-13032,-8348,43370,-676,36360,30679,1209.983,2330.704,1208.402,5288,6444,88,8.934708
-13020,-8324,43386,-666,36440,30823,1209.948,2329.777,1208.471,5239,6484,99,2324.828
-12980,-8388,41242,-669,34280,29031,1209.828,2329.725,1208.419,5248,6548,119,2321.701
-13136,-8328,43386,-687,36248,30903,1209.897,2330.498,1208.54,5264,6392,119,2323.076
-12980,-8400,43418,-688,36264,30983,1209.914,2328.041,1208.368,5251,6588,94,2320.997
-12956,-8344,41210,-730,34312,29303,1209.948,2327.577,1208.076,5259,6428,107,2320.515
-12996,-8308,43482,-696,36536,31015,1209.914,2328.471,1208.127,5240,6560,149,2320.67
-13020,-8344,43530,-677,36632,31159,1210.052,2327.646,1208.247,5212,6472,122,2321.048
-13032,-8400,41194,-688,34488,29191,1210.034,2327.423,1208.076,5231,6540,114,2320.052
-13100,-8328,43706,-685,36552,31079,1210.086,2328.849,1208.076,5245,6576,110,2321.392
-13008,-8436,43498,-676,36104,30999,1209.966,2327.113,1208.213,5193,6476,124,9.261168
-12976,-8304,41130,-678,34408,29367,1210.0,2327.56,1208.333,5263,6400,87,8.006873
-12992,-8240,43482,-710,36568,31143,1209.966,2327.68,1208.316,5275,6524,126,7.57732
-13032,-8392,43322,-677,36632,31207,1209.811,2327.732,1208.299,5211,6468,152,8.024055
-12940,-8436,41178,-669,34568,29175,1210.12,2328.471,1208.282,5280,6416,84,8.453609
-13028,-8460,43322,-691,36504,31415,1209.931,2328.591,1208.23,5267,6524,107,9.398625
-12912,-8316,43466,-690,37097,30999,1209.948,2328.316,1208.144,5203,6476,147,8.917525
-12988,-8408,41338,-673,34648,29415,1210.069,2327.818,1208.144,5236,6340,102,8.058419
-13056,-8336,43514,-645,36840,31255,1210.0,2328.436,1208.265,5261,6472,109,8.522337
-12996,-8332,43578,-667,36744,31623,1209.914,2327.766,1208.179,5237,6432,100,7.542955
-13108,-8364,41178,-684,34840,29735,1209.914,2327.526,1208.179,5280,6436,74,2320.962
-13016,-8372,44074,-568,36584,31751,1209.863,2328.196,1208.316,5064,6452,30,2320.756
-13084,-8456,43786,-686,36616,31511,1209.845,2328.11,1208.419,5186,6324,148,2322.01
-12956,-8432,41530,-674,34680,29351,1209.828,2328.746,1208.402,5216,6628,136,2322.457
-12844,-8352,43674,-661,36792,31543,1209.811,2328.986,1208.333,5219,6476,98,2321.752
-12980,-8388,43818,-687,36648,32055,1209.931,2328.127,1208.299,5134,6508,196,2321.271
-12920,-8376,41434,-680,34568,29863,1209.88,2330.017,1208.196,5229,6524,150,2322.388
-12920,-8364,43626,-692,36328,31783,1209.811,2329.914,1208.368,5239,6556,117,2323.763
-13012,-8380,43802,-659,36600,31735,1209.914,2329.76,1208.161,5209,6508,105,2323.832
-13020,-8336,41562,-676,34408,29783,1209.794,2328.935,1208.402,5244,6600,123,2323.041
-13004,-8300,43802,-693,36616,31863,1209.983,2330.55,1208.54,5230,6564,119,2323.007
-12984,-8512,43786,-656,36808,31751,1209.845,2329.845,1208.54,5219,6452,156,2323.041
-12944,-8352,41578,-672,34712,29767,1209.897,2328.763,1208.368,5239,6392,122,2322.045
-12904,-8416,43802,-663,36889,31735,1209.931,2330.172,1208.23,5243,6568,111,2324.038
-13016,-8316,43738,-682,36664,31735,1209.845,2329.347,1208.316,5211,6472,106,2324.106
-13040,-8356,41594,-687,34760,30199,1209.88,2328.797,1208.419,5209,6524,131,2321.804
-12996,-8364,43834,-691,36728,31799,1209.794,2328.763,1208.832,5234,6544,108,2321.856
-13068,-8332,43786,-661,36664,31703,1209.845,2327.955,1208.746,5236,6720,107,2321.271
-12948,-8324,41658,-645,34488,30007,1209.931,2327.852,1208.316,5247,6392,129,2321.529
-12936,-8300,43642,-674,36408,31927,1210.137,2329.485,1208.299,5217,6420,97,2321.856
-13032,-8272,43882,-727,36568,31799,1209.863,2328.436,1208.454,5215,6548,136,2324.124
-12952,-8384,41386,-650,34264,29879,1209.931,2329.536,1208.333,5201,6532,141,2323.007
-13004,-8424,43802,-643,36328,31991,1209.948,2330.155,1208.316,5223,6460,110,2323.952
-12984,-8408,43642,-684,36440,31927,1209.966,2328.935,1208.316,5210,6652,114,2321.873
-12984,-8284,41290,-679,33800,29959,1209.88,2328.351,1208.282,5238,6544,117,2321.357
-13064,-8224,43834,-677,36296,31927,1209.777,2328.591,1208.299,5209,6584,94,2322.251
-13088,-8356,43818,-680,36408,31943,1209.914,2328.007,1208.179,5258,6528,142,2321.443
-13096,-8348,41434,-659,34104,30055,1210.0,2326.89,1208.265,5235,6468,118,2320.962
-12948,-8328,43866,-661,36472,32119,1209.759,2327.869,1208.402,5272,6632,82,2321.083
-13084,-8308,43786,-671,36200,31975,1209.828,2327.423,1208.161,5234,6572,90,9.123712
-12976,-8460,41738,-670,34216,30007,1209.863,2328.144,1208.35,5202,6424,99,9.621993
-13048,-8412,43626,-647,36408,32055,1209.88,2330.292,1208.797,5205,6436,117,7.852233
-13032,-8380,43802,-690,36248,31991,1210.034,2328.179,1208.849,5244,6572,98,2322.921
-12996,-8404,41754,-702,34488,30071,1209.983,2329.227,1208.883,5255,6428,128,2322.577
-12984,-8364,43706,-663,36520,31927,1209.948,2329.57,1208.917,5257,6544,129,9.604811
-13028,-8368,43706,-652,36280,32119,1210.103,2328.093,1208.849,5212,6384,110,7.800687
-12996,-8416,41626,-655,34520,29959,1210.086,2328.058,1208.952,5200,6544,133,7.285223
-13104,-8348,43834,-697,36136,31863,1210.0,2329.983,1209.003,5195,6628,123,8.14433
-13044,-8380,43866,-657,36392,31991,1209.966,2328.299,1209.072,5226,6436,122,9.158075
-13016,-8364,41514,-691,34168,30055,1210.206,2328.763,1209.158,5220,6520,112,9.072165
-13040,-8352,43626,-682,36120,31767,1209.845,2328.66,1208.935,5232,6484,106,9.072165
-13120,-8436,43786,-674,36408,31991,1209.931,2329.725,1209.021,5235,6392,158,7.749141
-13004,-8332,41466,-673,34232,29863,1209.966,2328.024,1208.986,5194,6520,106,8.161512
-12996,-8324,43706,-668,36552,32023,1209.845,2328.591,1208.78,5203,6516,135,9.914089
-12968,-8412,43834,-684,36456,32007,1209.948,2327.99,1208.746,5276,6556,99,7.800687
-13012,-8344,41434,-678,34328,30007,1210.069,2327.783,1208.866,5247,6508,94,7.302405
-13056,-8392,43802,-709,36504,31671,1209.983,2329.227,1208.935,5266,6456,110,7.731959
-13100,-8428,44058,-693,36360,31991,1209.742,2329.158,1209.003,5254,6484,102,7.800687
-13008,-8328,41450,-638,33240,29815,1209.931,2328.333,1208.814,5217,6472,103,7.749141
-13084,-8296,43754,-691,36328,31959,1209.811,2328.694,1208.643,5249,6480,115,8.659794
-12912,-8416,43994,-669,36376,32087,1210.017,2328.402,1208.711,5253,6460,103,8.247422
-12984,-8444,41434,-690,34104,30071,1209.845,2328.711,1208.677,5282,6528,90,8.659794
-12952,-8408,43866,-673,36360,32055,1209.88,2329.295,1208.9,5246,6416,90,7.800687
-12992,-8348,43706,-669,36152,31927,1210.0,2328.574,1208.849,5239,6380,117,8.195876
-13116,-8336,41658,-673,34280,29943,1209.897,2328.866,1208.711,5240,6436,107,2323.213
-12960,-8432,43706,-644,36456,31991,1209.863,2329.76,1209.089,5207,6408,203,2323.952
-12972,-8404,43738,-692,36424,31767,1209.88,2329.158,1208.917,5238,6448,138,2322.371
-12936,-8392,41466,-673,34232,29815,1209.931,2328.024,1208.917,5198,6592,126,2321.529
-13044,-8424,43850,-649,36536,31815,1209.931,2328.402,1208.952,5235,6496,113,8.195876
-12932,-8420,43898,-659,36664,31783,1209.897,2327.663,1208.917,5262,6472,94,7.285223
-12960,-8324,41738,-699,34552,29799,1209.88,2328.849,1208.763,5236,6500,107,7.33677
-12912,-8348,43834,-664,36392,31895,1210.052,2328.54,1208.935,5301,6572,80,7.216495
-13008,-8376,43930,-677,36392,31895,1210.0,2326.478,1209.038,5274,6548,106,7.66323
-13024,-8296,41770,-673,34392,29959,1209.931,2326.787,1208.952,5248,6492,141,7.731959
-13032,-8364,43802,-679,36472,31847,1209.966,2327.388,1208.9,5197,6288,112,7.285223
-13032,-8280,43978,-692,36392,31975,1210.034,2326.667,1209.175,5219,6424,155,7.749141
-12916,-8380,41690,-701,34424,30007,1209.828,2326.615,1209.175,5282,6456,106,7.33677
-13056,-8412,43898,-633,36568,31799,1209.88,2327.852,1208.797,5229,6496,97,7.285223
-13084,-8396,43978,-679,36280,31863,1209.88,2329.33,1208.814,5256,6296,95,7.285223
-13128,-8336,41738,-706,34360,29655,1209.845,2328.368,1209.021,5259,6608,128,7.233677
-12976,-8388,43962,-671,36472,31799,1209.983,2329.553,1208.9,5231,6612,111,7.783505
-13164,-8396,44042,-657,36536,31911,1209.88,2329.863,1209.089,5221,6412,117,7.199313
-12964,-8340,41642,-676,34504,29959,1209.897,2332.938,1209.089,5271,6500,91,7.18213
-13096,-8412,44026,-678,36312,31831,1209.948,2331.168,1209.038,5233,6484,94,7.319588
-13084,-8320,43962,-649,36392,31847,1210.017,2329.914,1208.917,5211,6604,107,7.268041
-13072,-8412,41546,-693,34360,29975,1210.103,2332.268,1208.694,5276,6464,84,7.250859
-13024,-8324,44042,-682,36568,31911,1210.086,2327.027,1208.952,5252,6588,119,7.33677
-13016,-8348,43882,-658,36600,31991,1210.172,2330.361,1208.9,5259,6432,78,7.285223
-13036,-8376,41738,-687,35048,30375,1210.0,2330.395,1208.935,5237,6488,108,8.14433
-12988,-8276,44122,-701,36440,32007,1210.155,2333.333,1208.935,5295,6448,54,2325.808
-13016,-8260,43898,-688,36504,32247,1209.983,2330.567,1208.866,5240,6512,87,8.195876
-13084,-8352,41738,-695,34232,30071,1210.103,2331.014,1208.866,5220,6408,119,7.353952
-12996,-8336,44074,-651,36088,32071,1210.103,2331.856,1208.797,5212,6492,119,8.71134
-12976,-8380,43962,-682,36376,32103,1209.983,2332.698,1208.814,5226,6584,125,7.800687
-13024,-8380,41818,-672,34056,30215,1210.069,2332.612,1208.9,5262,6712,88,8.247422
-13060,-8400,44026,-679,36536,32279,1210.069,2331.22,1208.814,5226,6576,114,7.783505
-13120,-8360,44026,-650,36776,31959,1210.017,2331.237,1208.78,5249,6416,99,7.33677
-12964,-8368,41578,-665,34200,29959,1210.017,2330.309,1208.66,5266,6500,110,7.319588
-13032,-8408,44042,-675,36728,31975,1209.983,2330.928,1208.883,5253,6368,78,7.285223
-13040,-8404,43898,-698,36408,32119,1209.845,2330.137,1208.935,5265,6544,64,7.233677
-13004,-8412,41738,-684,34408,29447,1209.794,2329.674,1208.78,5241,6520,139,2325.67
-12996,-8384,39081,-765,35640,27878,8.539518,2330.653,1208.866,5284,6476,-1,2324.192
-12872,-8352,43002,-625,34328,28134,1209.88,2329.639,1208.78,5247,6496,145,2323.849
-13020,-8376,41274,-640,32471,27398,1209.828,2329.845,1208.797,5180,6456,156,2324.072
-13128,-8276,43626,-789,34200,29959,1209.931,2330.533,1208.797,5172,6432,90,2324.519
-12920,-8468,44714,-724,34216,29959,1209.759,2329.845,1208.729,5353,6600,60,2326.598
-12924,-8372,42682,-695,32423,28022,1209.931,2330.103,1208.78,5248,6524,83,2324.399
-13036,-8408,44970,-665,34472,30263,1210.017,2330.429,1208.78,5218,6460,101,2323.969
-13080,-8480,45018,-668,34568,30391,1209.948,2330.172,1208.66,5254,6360,115,2324.485
-12996,-8464,42794,-682,32343,28422,1209.948,2330.137,1208.694,5227,6440,97,2323.643
-12936,-8440,44890,-694,35016,29959,1209.966,2330.876,1208.78,5228,6432,138,2324.295
-13008,-8460,45227,-679,34984,30103,1209.811,2329.983,1208.694,5185,6568,119,2323.9
-12996,-8444,42666,-664,32727,28342,1209.897,2330.086,1208.78,5210,6400,134,2323.814
-13048,-8356,45050,-669,34776,30103,1209.794,2330.395,1208.746,5216,6560,150,2323.694
-13040,-8384,45211,-661,34936,30295,1209.777,2330.069,1208.591,5214,6472,107,2324.467
-13072,-8380,42954,-701,33032,28695,1209.948,2329.588,1208.746,5205,6512,149,2324.244
-13060,-8436,45147,-683,34792,30407,1209.897,2331.478,1208.952,5216,6492,141,2324.656
-13040,-8440,45163,-655,34936,30471,1209.811,2329.931,1208.814,5193,6604,109,2324.175
-12976,-8380,43194,-641,32888,28679,1209.863,2329.794,1208.9,5188,6696,72,2328.574
-12960,-8344,45099,-678,35064,30455,1209.811,2331.289,1208.763,5259,6464,96,2324.88
-13044,-8372,45307,-672,34728,30631,1209.88,2330.481,1208.935,5192,6636,95,2324.33
-13004,-8396,42842,-676,32567,28534,1209.931,2330.275,1208.969,5227,6592,112,2324.141
-12920,-8360,45307,-658,35112,30327,1209.966,2330.601,1208.935,5205,6528,118,2323.917
-13064,-8352,45179,-666,35128,30631,1209.897,2330.309,1208.866,5221,6556,131,2324.553
-13000,-8468,43050,-675,32936,28727,1209.914,2330.017,1208.866,5257,6456,98,2324.175
-13044,-8408,45323,-678,34824,30679,1209.948,2330.584,1208.883,5244,6484,103,2324.106
-13044,-8436,45371,-657,34984,30743,1209.914,2330.034,1208.78,5200,6512,112,2324.227
-12984,-8344,43258,-666,32984,28903,1209.759,2329.863,1209.021,5226,6624,110,2324.725
-13032,-8360,45323,-679,34648,30583,1209.88,2330.584,1208.78,5203,6588,139,2325.12
-12932,-8384,45595,-706,34984,30743,1209.811,2329.931,1208.917,5293,6436,136,2324.467
-12976,-8376,43178,-669,32872,29047,1209.914,2330.052,1208.9,5239,6452,86,2324.141
-12900,-8368,45419,-674,35048,30871,1209.777,2330.842,1208.729,5210,6668,102,2324.295
-12940,-8344,45723,-675,35192,30711,1209.828,2330.429,1208.917,5232,6540,129,2324.622
-12988,-8356,43290,-635,33000,28935,1209.914,2330.052,1208.849,5252,6424,107,2324.467
-13060,-8468,45323,-676,35096,30695,1209.863,2330.0,1208.952,5194,6312,114,2324.106
-12976,-8396,45691,-670,35112,30471,1209.931,2330.034,1209.038,5199,6460,134,2324.622
-13056,-8396,43322,-699,33016,28791,1209.948,2329.691,1208.832,5248,6576,101,2324.399
-12992,-8396,45611,-667,35320,30631,1209.811,2330.601,1208.986,5237,6468,161,2324.124
-12988,-8360,45803,-647,35224,30679,1209.777,2329.622,1208.917,5256,6460,126,2324.295
-12988,-8340,43194,-667,33240,28839,1209.88,2330.344,1208.385,5246,6428,104,2324.003
-12996,-8380,45835,-692,35064,30679,1209.845,2330.309,1208.144,5272,6576,137,2324.141
-12992,-8420,45547,-695,35048,30759,1209.794,2329.622,1208.213,5329,6436,56,2324.175
-13028,-8344,43226,-712,32872,28679,1209.811,2329.983,1208.144,5345,6596,71,2324.33
-12996,-8352,45659,-667,35080,30679,1209.845,2330.155,1208.161,5210,6576,94,2324.295
-12968,-8328,45835,-647,35240,30567,1209.811,2333.11,1208.35,5267,6404,80,2324.502
-13004,-8336,43226,-666,33208,28823,1209.897,2330.12,1208.282,5243,6496,90,2324.674
-13032,-8324,45659,-697,35192,30567,1209.863,2330.429,1208.299,5250,6572,101,2323.935
-13132,-8372,45627,-669,35128,30647,1209.863,2330.292,1208.179,5257,6404,115,2324.691
-12996,-8428,43450,-685,33032,28935,1210.12,2330.567,1208.144,5227,6348,126,2324.33
-13032,-8356,45611,-659,35112,30983,1209.897,2330.447,1208.213,5277,6532,107,2324.381
-13012,-8388,45419,-705,35016,30807,1210.086,2329.983,1208.23,5232,6400,112,2324.605
-12924,-8368,43322,-660,33176,28935,1209.966,2330.206,1208.093,5204,6444,139,2324.381
-13152,-8424,45931,-677,35096,30471,1209.983,2330.687,1208.093,5176,6524,136,2324.192
-13032,-8392,45835,-675,35064,30727,1209.966,2329.656,1208.196,5291,6412,110,2324.364
-13000,-8384,43274,-673,33032,28903,1209.948,2330.584,1208.196,5224,6476,108,2325.601
-13112,-8384,45611,-673,35080,30711,1210.017,2330.79,1208.11,5240,6536,126,2324.536
-13008,-8364,45643,-677,35304,30775,1209.931,2329.76,1208.265,5235,6536,95,2324.828
-13016,-8356,43130,-698,33080,28887,1209.794,2330.172,1208.213,5248,6448,139,2325.172
-12964,-8384,45499,-648,35192,30807,1209.811,2331.048,1208.196,5175,6592,143,2324.777
-12996,-8388,45563,-668,35240,30823,1210.086,2330.894,1208.54,5200,6408,94,2324.897
-13020,-8444,43082,-657,33080,28903,1209.983,2330.258,1208.368,5216,6368,95,2325.309
-13104,-8348,45643,-662,35288,30791,1210.034,2330.739,1208.127,5240,6536,132,2324.983
-13020,-8336,45691,-664,35096,30327,1210.017,2330.258,1208.247,5209,6504,128,2325.687
-12932,-8388,43226,-660,33080,28887,1209.897,2330.429,1208.23,5221,6496,110,2325.0
-12968,-8376,45595,-645,35160,30839,1209.914,2331.701,1208.333,5200,6476,102,2325.498
-12976,-8392,45483,-677,35400,30727,1209.966,2330.326,1208.23,5283,6484,111,2326.77
-13012,-8340,43066,-680,33208,28935,1209.931,2330.498,1208.316,5258,6452,99,2327.68
-13032,-8392,45323,-711,35160,30903,1210.052,2330.962,1208.196,5292,6540,121,2327.56
-12996,-8344,45339,-699,35240,30935,1209.897,2330.052,1208.161,5237,6536,85,2325.945
-13084,-8348,42938,-668,32952,29047,1209.983,2329.811,1208.196,5240,6464,157,2324.588
-12996,-8300,45323,-684,35064,30887,1209.897,2331.46,1208.265,5221,6472,104,2327.268
-13064,-8360,45243,-655,35064,30887,1209.863,2331.77,1208.196,5242,6632,103,2327.749
-13040,-8392,42842,-697,33048,29079,1209.948,2331.512,1208.179,5244,6568,87,2327.99
-12956,-8432,45323,-709,35128,30775,1209.863,2331.563,1208.316,5252,6420,147,2327.491
-12944,-8340,45179,-681,34680,30967,1209.931,2330.344,1208.265,5248,6404,114,2326.615
-13004,-8372,43066,-671,33048,29047,1209.914,2330.533,1208.368,5216,6500,100,2326.409
-12980,-8304,45323,-697,35000,30759,1209.863,2331.168,1208.35,5261,6460,97,2327.474
-13068,-8368,45243,-673,35000,30999,1209.931,2330.292,1208.093,5232,6392,140,2325.722
-12984,-8372,43002,-695,33032,29191,1210.0,2326.787,1208.127,5244,6536,76,2324.502
-12956,-8352,45339,-675,35080,30983,1209.983,2327.938,1208.265,5232,6528,119,2323.333
-13156,-8440,45163,-684,34824,30999,1209.845,2328.454,1208.385,5215,6580,107,2322.783
-13060,-8368,42986,-677,32984,29207,1209.811,2327.337,1208.247,5219,6576,143,2323.402
-12928,-8412,45275,-654,35032,31031,1209.863,2327.698,1208.316,5250,6472,113,2323.385
-12944,-8308,45243,-647,35016,31063,1209.811,2327.56,1208.058,5232,6520,121,2322.182
-12968,-8456,42794,-677,32904,29367,1209.88,2327.32,1208.179,5243,6596,112,2321.752
-13060,-8412,44954,-713,35016,31063,1209.828,2327.646,1208.299,5242,6460,129,2321.426
-12984,-8400,45034,-665,35048,31063,1209.914,2326.942,1208.333,5230,6564,129,2321.77
-12944,-8420,42698,-670,32984,29111,1209.863,2326.632,1208.196,5238,6544,109,2321.392
-13052,-8380,45307,-670,35080,30983,1209.88,2327.904,1208.247,5232,6644,116,2321.821
-12924,-8336,45067,-673,34968,31175,1209.828,2327.457,1208.041,5243,6424,151,2322.268
-13036,-8316,42778,-677,33256,29271,1209.777,2327.096,1208.11,5244,6472,97,2322.886
-13112,-8324,45227,-688,35080,31159,1209.794,2327.045,1208.161,5286,6488,101,2320.378
-13044,-8448,45050,-668,35128,31079,1209.914,2327.543,1208.247,5248,6496,109,2323.608
-13040,-8360,42778,-688,33032,29351,1209.931,2330.137,1208.179,5261,6516,105,2322.972
-13048,-8424,45163,-703,35512,30967,1209.863,2329.845,1208.247,5161,6600,154,2323.9
-12988,-8260,45211,-617,35448,30647,1210.086,2329.88,1208.333,5116,6584,40,2324.502
-13000,-8380,42810,-672,33240,28855,1209.931,2331.203,1208.041,5266,6560,77,2328.591
-13020,-8288,44986,-662,35304,30839,1210.086,2330.636,1208.179,5253,6432,125,2324.106
-12952,-8428,44970,-651,35080,30743,1210.017,2329.038,1208.179,5204,6516,131,2326.667
-13084,-8360,42490,-661,32615,28951,1209.966,2334.124,1208.11,5244,6496,116,2329.931
-12988,-8436,44810,-692,34856,30903,1209.931,2334.553,1208.144,5271,6580,104,2328.814
-13032,-8400,44922,-703,35080,30807,1209.914,2331.856,1208.625,5256,6424,148,2327.852
-12988,-8344,42730,-669,32968,28983,1209.914,2330.979,1208.282,5260,6624,101,2327.165
-13052,-8404,44810,-676,35016,30967,1209.88,2332.096,1208.179,5250,6564,112,2327.32
-13020,-8292,44922,-635,35016,30983,1210.017,2331.083,1208.11,5210,6412,114,2326.924
-13040,-8336,42666,-675,33048,29143,1210.0,2330.601,1208.161,5228,6604,105,2327.268
-13036,-8396,44858,-669,34968,30967,1209.863,2330.997,1207.904,5211,6460,111,2327.148
-13016,-8356,45002,-685,35208,31031,1209.811,2330.275,1208.041,5198,6448,138,2326.495
-13008,-8344,42538,-687,33032,29031,1209.811,2330.361,1207.955,5222,6436,134,2327.199
-13092,-8360,45034,-676,35032,31127,1209.897,2330.55,1208.093,5261,6524,135,2326.667
-13032,-8324,45147,-684,35192,31143,1209.88,2330.24,1207.955,5205,6420,122,2327.406
-12980,-8372,42762,-669,33144,29127,1209.948,2330.326,1208.11,5241,6408,134,2327.56
-13024,-8376,44842,-664,35160,30983,1209.966,2330.979,1208.11,5252,6452,106,2327.045
-13128,-8416,44970,-686,35224,31031,1209.948,2330.447,1208.127,5197,6396,119,2327.01
-13092,-8352,42538,-659,33272,29239,1210.086,2331.46,1208.076,5223,6520,133,2327.027
-12964,-8444,44826,-696,35128,30951,1209.931,2330.326,1208.179,5214,6428,142,2327.062
-13012,-8332,45034,-695,35080,31015,1210.103,2329.845,1208.213,5263,6564,95,2326.065
-12904,-8380,42474,-693,33000,29303,1210.0,2330.137,1208.007,5241,6476,89,2326.014
-12996,-8372,44794,-652,34904,31095,1209.811,2330.447,1208.127,5220,6580,118,2326.529
-13124,-8412,44602,-640,35048,30999,1209.914,2329.863,1208.144,5245,6548,89,2327.234
-12988,-8348,42362,-686,33032,29143,1209.828,2330.378,1208.041,5214,6592,133,2326.752
-12984,-8348,44794,-687,35192,31031,1209.931,2331.804,1208.024,5229,6472,138,2326.186
-13052,-8396,44778,-711,35096,31063,1209.845,2330.137,1208.093,5209,6408,107,2326.512
-12988,-8324,42266,-661,32984,29223,1209.88,2329.828,1208.265,5234,6632,136,2325.876
-13036,-8288,44746,-685,35256,31095,1209.897,2331.048,1208.299,5235,6472,79,2326.392
-13064,-8376,44650,-701,34984,30983,1209.863,2330.79,1208.247,5223,6480,135,2326.254
-12924,-8288,42378,-646,33032,29207,1209.914,2330.653,1208.265,5255,6392,117,2326.392
-13020,-8396,44474,-685,35160,31063,1209.897,2330.79,1208.23,5195,6292,138,2326.976
-12956,-8364,44778,-682,35224,30999,1209.948,2329.828,1208.402,5200,6364,148,2326.254
-12952,-8352,42538,-694,33304,29287,1209.811,2330.292,1208.247,5229,6376,132,2327.955
-12924,-8376,44714,-668,35192,30855,1209.88,2330.155,1208.213,5205,6560,120,2325.601
-12984,-8344,44714,-656,35320,31159,1209.914,2329.76,1208.436,5219,6308,85,2327.217
-13020,-8348,42282,-657,33176,29239,1209.914,2330.55,1208.333,5238,6456,69,2325.601
-13028,-8312,44538,-683,35080,30871,1209.948,2330.79,1208.368,5239,6516,77,2327.594
-12992,-8352,44666,-668,35176,31223,1209.966,2329.794,1208.402,5210,6596,120,2326.718
-13044,-8396,42202,-684,33128,29351,1209.828,2329.914,1208.127,5248,6420,122,2326.168
-12980,-8324,44554,-662,35112,30983,1209.863,2330.309,1208.23,5242,6508,155,2325.223
-13124,-8352,44650,-660,35192,30999,1209.897,2330.069,1208.454,5208,6552,135,2325.67
-13068,-8460,42474,-691,33096,29367,1209.897,2329.948,1208.265,5236,6568,114,2326.563
-13016,-8324,44538,-668,35224,31191,1209.845,2330.636,1208.144,5254,6524,136,2325.704
-13044,-8316,44794,-707,35128,31303,1209.811,2329.76,1208.316,5229,6640,127,2326.048
-13024,-8388,42602,-681,33032,29447,1209.88,2330.223,1208.282,5234,6580,111,2326.065
-13028,-8296,44666,-670,35064,31207,1209.828,2330.052,1208.196,5228,6576,119,2326.134
-12948,-8356,44746,-655,35224,31479,1209.88,2329.691,1208.746,5236,6480,114,2326.065
-13076,-8364,42330,-692,33208,29383,1209.983,2330.103,1208.677,5234,6536,104,2325.773
-13012,-8280,44650,-703,34936,31095,1209.948,2330.756,1208.247,5207,6504,87,2326.048
-12956,-8408,44810,-673,35048,31207,1209.845,2330.172,1208.11,5212,6512,83,2326.735
-13064,-8372,42394,-663,32968,29239,1209.863,2330.258,1208.144,5260,6436,106,2325.618
-12972,-8408,44474,-660,35224,31031,1209.948,2331.563,1208.213,5216,6468,89,2328.058
-13096,-8452,44634,-649,35160,31287,1209.845,2329.948,1208.23,5228,6412,108,2326.34
-13036,-8324,42282,-695,33256,29351,1209.777,2330.876,1208.265,5230,6600,93,2326.289
-13084,-8284,44794,-672,35432,31351,1209.708,2330.086,1208.419,5265,6512,103,2325.894
-12988,-8380,44554,-672,35304,31095,1209.828,2329.57,1208.282,5212,6572,137,2326.443
-12992,-8440,41994,-684,33544,29447,1209.863,2330.017,1208.265,5219,6396,111,2326.048
-13104,-8336,44570,-675,35368,31015,1209.794,2330.653,1208.144,5261,6372,106,2326.529
-13000,-8376,44474,-648,35304,31239,1209.794,2330.309,1208.23,5247,6512,84,2326.684
-13028,-8404,42010,-663,33320,29431,1209.88,2330.911,1208.402,5223,6556,95,2327.01
-13084,-8392,44506,-688,35288,31159,1209.897,2330.498,1208.11,5249,6544,140,2326.821
-13040,-8372,44298,-682,35096,31159,1209.845,2329.983,1208.196,5256,6432,110,2326.117
-13008,-8384,42010,-665,33064,29223,1209.897,2329.897,1208.11,5243,6596,79,2326.598
-13024,-8276,44298,-641,34984,31271,1209.914,2330.859,1208.179,5212,6504,122,2326.289
-12932,-8412,44490,-684,35416,31095,1209.931,2331.151,1208.196,5221,6512,110,2326.735
-12988,-8288,42266,-640,33288,29287,1209.828,2330.361,1208.23,5196,6436,123,2326.117
-13112,-8456,44394,-721,35256,31063,1209.845,2330.584,1208.127,5230,6396,95,2326.203
-12996,-8388,44570,-677,35512,30967,1209.897,2329.931,1208.11,5193,6336,123,2325.997
-13160,-8404,42010,-684,33304,29447,1209.828,2329.708,1208.058,5226,6384,141,2325.722
-13020,-8376,44314,-694,35336,31175,1209.794,2330.739,1208.316,5246,6508,139,2326.289
-12976,-8320,44506,-679,35496,31335,1209.966,2329.914,1208.265,5215,6312,146,2326.649
-12980,-8388,42154,-658,33176,29447,1209.794,2330.704,1208.144,5243,6636,94,2327.44
-12956,-8496,44282,-675,35304,31447,1209.88,2331.22,1208.076,5232,6588,110,2326.787
-12984,-8380,44314,-678,35288,31319,1209.914,2330.395,1208.316,5241,6552,102,2326.254
-12920,-8408,42186,-689,33368,29191,1209.931,2330.103,1208.127,5227,6540,119,2327.131
-12936,-8316,44330,-681,35560,31415,1209.845,2330.636,1208.11,5217,6380,133,2326.289
-13024,-8424,44138,-672,35480,31543,1209.931,2329.966,1208.127,5183,6356,123,2326.495
-13008,-8400,42042,-683,33544,29607,1209.88,2330.24,1208.11,5181,6472,138,2326.701
-13028,-8296,44394,-686,35480,31383,1209.845,2330.601,1208.316,5183,6500,132,2326.357
-13024,-8336,44154,-673,35080,31415,1209.845,2330.928,1208.282,5213,6408,126,2327.406
-13044,-8372,41786,-701,33272,29543,1209.708,2330.584,1208.144,5212,6472,110,2327.113
-13040,-8372,44218,-667,35304,31511,1209.931,2330.945,1208.161,5214,6540,105,2326.787
-12976,-8424,44298,-694,35080,31271,1210.086,2330.429,1208.007,5232,6484,106,2327.371
-13048,-8392,41946,-665,33096,29527,1210.052,2330.756,1208.144,5229,6492,93,2327.783
-12960,-8400,44138,-678,35384,31335,1209.931,2331.735,1208.299,5224,6608,105,2327.234
-13048,-8400,44122,-676,35080,31239,1210.0,2330.395,1208.814,5223,6504,122,2327.337
-13052,-8300,41914,-660,33256,29607,1210.052,2330.928,1208.419,5255,6448,116,2327.045
-12996,-8376,44282,-691,35368,31399,1209.931,2330.773,1208.144,5235,6440,86,2326.77
-13000,-8376,44186,-674,35384,31415,1209.914,2329.742,1208.368,5282,6388,108,2326.752
-13084,-8416,41738,-675,33288,29447,1209.914,2330.395,1208.333,5232,6448,126,2326.065
-13048,-8412,43594,-648,35288,31287,1209.931,2330.567,1208.746,5186,6396,85,2326.392
-13052,-8380,43786,-676,35112,31319,1209.777,2331.443,1208.196,5208,6396,96,2327.852
-13088,-8288,41370,-673,33288,29495,1209.897,2332.096,1208.402,5237,6476,99,2328.093
-13048,-8296,43610,-700,35336,31495,1209.88,2332.955,1208.299,5210,6524,130,2328.935
-12984,-8404,43514,-721,35336,31447,1209.88,2332.062,1208.488,5224,6324,123,2329.742
-13024,-8408,41210,-671,33480,29559,1210.0,2331.117,1208.265,5232,6464,91,2330.464
-12964,-8300,43738,-654,35592,31335,1209.931,2330.962,1208.436,5231,6440,119,2327.68
-12980,-8292,43274,-652,35448,31511,1209.845,2330.052,1208.402,5234,6552,109,2327.406
-13060,-8264,41274,-677,33544,29559,1209.811,2330.687,1208.368,5265,6408,105,2329.467
-12988,-8368,43498,-725,35640,31495,1209.948,2332.766,1208.265,5275,6552,122,2328.402
-13180,-8364,43466,-672,35688,31399,1209.863,2330.911,1208.247,5245,6416,128,2328.625
-13064,-8308,40921,-696,33720,29703,1209.897,2331.993,1208.179,5230,6336,155,2328.66
-13084,-8444,43322,-677,35752,31495,1209.811,2331.752,1208.11,5286,6476,82,2328.711
-13172,-8392,43194,-674,35624,31543,1209.88,2332.285,1208.127,5214,6488,100,2329.485
-13064,-8300,40553,-650,33432,29719,1209.948,2331.701,1208.179,5211,6584,108,2329.175
-13032,-8348,43114,-700,35736,31495,1209.948,2331.718,1208.127,5245,6568,127,2328.608
-13044,-8296,42762,-664,35544,31447,1209.828,2330.997,1208.333,5233,6440,95,2328.471
-13116,-8396,40553,-665,33720,29959,1210.0,2331.168,1208.024,5276,6484,112,2328.797
-12904,-8344,42330,-662,35512,31831,1209.863,2332.406,1208.127,5259,6392,108,2328.368
-12988,-8376,43002,-667,35736,31639,1209.948,2331.581,1208.196,5220,6424,134,2328.488
-13004,-8288,40553,-652,33752,29799,1209.845,2331.134,1208.247,5177,6412,120,2327.955
-12964,-8344,42922,-681,35400,31671,1209.863,2332.577,1208.127,5232,6608,129,2328.849
-13000,-8352,43162,-644,35544,31575,1210.052,2330.945,1208.299,5210,6436,110,2328.883
-13004,-8360,40601,-696,33368,30439,1209.914,2331.306,1208.179,5219,6380,101,2328.711
-12956,-8416,42922,-674,35672,31639,1209.88,2331.512,1208.282,5279,6492,105,2328.196
-12984,-8372,42506,-684,35320,31607,1209.914,2331.512,1208.368,5255,6392,91,2328.763
-12992,-8388,40297,-664,33544,29975,1210.017,2331.375,1208.368,5203,6436,134,2329.605
-13032,-8344,42938,-663,35496,31799,1209.914,2331.409,1208.333,5229,6652,107,2327.955
-13108,-8376,42682,-675,35832,31735,1209.845,2331.254,1208.213,5245,6408,112,2329.089
-13016,-8320,40489,-688,33464,29959,1209.845,2331.443,1208.144,5246,6436,115,2327.526
-13152,-8380,42922,-696,35592,31799,1209.845,2332.062,1208.161,5208,6548,118,2327.732
-12992,-8292,43018,-668,35640,31911,1209.777,2329.983,1208.127,5195,6500,126,2327.732
-12976,-8308,40473,-669,33400,29943,1209.777,2331.546,1208.368,5217,6580,117,2328.557
-13008,-8360,42746,-653,35656,31831,1209.811,2334.656,1208.196,5261,6632,107,2329.227
-13048,-8316,42794,-685,35608,32007,1209.983,2331.375,1208.247,5234,6508,119,2329.192
-13084,-8520,40713,-702,33688,30039,1209.845,2331.237,1208.196,5213,6580,99,2328.265
-12976,-8352,42938,-666,35752,31927,1209.828,2331.735,1208.179,5266,6616,109,2328.54
-13084,-8320,43018,-691,35608,31991,1209.845,2332.56,1208.144,5224,6456,104,2328.643
-13088,-8288,40713,-659,33720,30199,1209.897,2331.993,1208.23,5217,6572,134,2328.179
-13036,-8448,42922,-660,35624,31783,1209.794,2331.563,1208.23,5242,6580,88,2329.158
-13056,-8348,43226,-673,35560,31991,1209.88,2331.083,1208.161,5240,6444,99,2327.852
-12984,-8380,40601,-663,33624,30295,1209.88,2331.048,1208.265,5240,6604,81,2328.935
-12984,-8284,43258,-672,35816,32007,1209.897,2331.976,1208.213,5185,6548,99,2328.917
-13000,-8324,43034,-688,35688,32103,1209.966,2331.151,1208.093,5232,6388,118,2329.416
-13096,-8328,40953,-672,33720,30391,1209.914,2331.701,1208.144,5251,6604,113,2328.419
-13016,-8376,43002,-678,35768,32119,1209.88,2332.44,1208.23,5234,6496,103,2330.223
-12988,-8380,43002,-641,35592,32311,1209.966,2331.89,1208.127,5174,6496,121,2329.536
-13040,-8308,40745,-651,33688,30391,1209.794,2332.285,1208.368,5211,6488,123,2329.175
-13104,-8360,43274,-687,35768,32295,1209.828,2333.161,1208.419,5238,6436,99,2328.849
-13168,-8396,43066,-669,35752,32183,1209.966,2332.44,1208.299,5283,6572,99,2328.093
-13164,-8336,40825,-653,33576,30471,1209.897,2331.924,1208.265,5229,6440,157,2329.433
-13028,-8312,43098,-683,35592,32247,1210.0,2331.942,1208.316,5214,6452,110,2327.491
-12908,-8324,43178,-676,35800,32407,1210.052,2331.323,1208.23,5231,6440,130,2328.986
-13092,-8372,40857,-683,33752,30471,1209.88,2333.041,1208.23,5244,6368,126,2330.395
-13064,-8420,43034,-669,35608,32439,1210.017,2332.268,1208.179,5244,6596,120,2328.729
-13092,-8420,42922,-662,35704,32439,1209.914,2332.045,1208.247,5209,6620,133,2329.295
-13104,-8404,40809,-641,33640,30631,1209.88,2332.543,1208.299,5226,6448,82,2328.608
-12976,-8356,43290,-659,35496,32519,1209.897,2332.113,1208.299,5249,6548,63,2328.385
-13084,-8272,43434,-699,35656,32743,1210.034,2333.368,1208.247,5185,6588,134,2329.038
-12996,-8400,41082,-646,33624,30935,1209.845,2332.131,1208.247,5233,6632,127,2328.608
-13108,-8392,43322,-670,35752,32407,1210.052,2332.612,1208.333,5252,6464,88,2329.055
-13096,-8348,43386,-696,35768,32247,1210.172,2332.543,1208.368,5300,6592,117,2328.041
-12992,-8352,41066,-672,33720,30311,1210.052,2331.237,1208.282,5228,6448,129,2328.247
-13096,-8420,43546,-667,35800,32279,1209.966,2331.512,1208.402,5207,6452,118,2326.409
-12996,-8324,43418,-668,35720,32247,1209.845,2331.495,1208.402,5185,6520,110,2327.852
-13048,-8312,40953,-700,33800,30375,1209.931,2331.684,1208.333,5209,6480,126,2328.832
-13032,-8324,43434,-658,35848,32439,1209.948,2331.752,1208.213,5267,6424,87,2329.158
-13056,-8396,43290,-698,35864,32503,1210.069,2332.165,1208.299,5285,6640,105,2328.093
-13108,-8364,41402,-647,33752,30647,1209.983,2331.838,1208.282,5194,6404,127,2327.972
-13048,-8444,43546,-677,35864,32551,1209.948,2333.23,1208.54,5247,6576,99,2328.161
-13064,-8408,43594,-696,35944,32727,1209.931,2331.512,1208.23,5216,6432,112,2328.368
-13060,-8400,41210,-688,33704,30743,1210.017,2332.199,1208.179,5199,6408,152,2327.972
-13044,-8408,43546,-669,35896,32423,1209.914,2332.217,1208.333,5260,6520,92,2328.814
-12988,-8344,43802,-712,35928,32920,1209.983,2331.323,1208.265,5282,6528,84,2328.299
-13116,-8336,41082,-687,33880,30743,1209.948,2332.165,1208.419,5222,6376,118,2329.76
-13020,-8392,43562,-691,35848,32663,1209.88,2332.406,1208.299,5224,6504,76,2328.282
-13084,-8352,43226,-679,35896,32423,1209.966,2332.285,1208.213,5243,6380,121,2328.557
-13120,-8248,41226,-677,33736,30775,1209.897,2332.079,1208.247,5241,6596,142,2327.801
-12984,-8348,43130,-635,35816,32567,1209.828,2333.058,1208.35,5289,6356,78,2327.955
-13128,-8436,43130,-672,35896,32615,1209.966,2331.495,1208.076,5217,6576,102,2328.54
-12972,-8296,40889,-690,33752,30743,1209.88,2331.203,1207.99,5231,6576,91,2329.347
-12940,-8312,43226,-672,35608,32503,1209.88,2332.165,1208.179,5215,6520,125,2329.313
-12992,-8352,43498,-659,35752,32519,1209.914,2332.027,1208.23,5248,6432,90,2328.213
-13040,-8376,41226,-632,33768,30519,1209.863,2331.375,1208.041,5223,6392,77,2327.904
-13132,-8364,43498,-640,35768,32631,1209.828,2332.44,1208.076,5274,6540,105,2328.746
-12892,-8340,43434,-664,35576,32519,1209.983,2332.01,1208.282,5200,6432,110,2328.522
-13008,-8364,41210,-682,33800,30743,1209.897,2331.976,1208.23,5242,6456,103,2329.708
-12960,-8312,43434,-678,35448,32920,1209.948,2331.426,1208.213,5247,6376,111,2327.852
-13056,-8376,43578,-693,35640,32952,1209.931,2331.443,1208.333,5227,6504,112,2328.179
-13148,-8308,41178,-676,33480,30951,1209.966,2331.306,1208.265,5222,6484,143,2327.904
-13012,-8248,43594,-682,35112,32984,1209.948,2332.131,1208.316,5230,6392,140,2329.038
-13076,-8316,43514,-648,35592,32984,1209.948,2331.752,1208.161,5225,6376,96,2329.553
-13040,-8356,41306,-665,33560,30951,1209.863,2331.237,1208.144,5209,6472,107,2328.179
-12952,-8296,43610,-654,35592,32888,1209.828,2332.285,1208.643,5241,6560,126,2328.505
-12964,-8408,43514,-683,35592,33048,1209.828,2331.804,1208.35,5247,6472,106,2330.344
-13108,-8396,41226,-658,33544,30983,1209.828,2331.134,1208.23,5178,6396,94,2327.938
-13052,-8328,43434,-690,35592,33080,1209.811,2332.148,1208.316,5273,6456,114,2328.333
-13068,-8284,43274,-710,35608,32856,1209.863,2331.34,1208.282,5259,6480,126,2328.436
-13024,-8412,40953,-675,33400,30983,1209.863,2332.268,1208.23,5245,6420,119,2328.419
-12996,-8272,43386,-671,35704,32920,1209.845,2332.337,1208.436,5236,6588,121,2328.11
-13040,-8332,43274,-744,36408,32055,7.783505,2331.907,1208.196,5302,6620,7,2328.076
-13076,-8304,41210,-669,33848,29959,7.714777,2332.972,1208.402,5267,6484,107,2329.897
-13128,-8320,43386,-700,36472,31799,1209.931,2331.77,1208.179,5223,6372,88,2328.024
-12980,-8412,43530,-692,36344,31879,1210.052,2332.285,1208.213,5206,6520,138,2328.797
-13024,-8320,41210,-685,34296,29959,1210.0,2331.993,1208.23,5266,6344,85,2328.797
-12956,-8332,43530,-644,36312,31863,1209.948,2333.265,1208.385,5238,6436,125,2328.402
-13024,-8312,43674,-678,36648,31815,1209.811,2331.942,1208.333,5256,6560,122,2327.972
-13048,-8284,41562,-659,34168,29991,1209.811,2332.44,1208.419,5223,6480,140,2328.66
-13072,-8288,43786,-696,36312,31655,11.08247,2331.924,1208.299,5237,6396,127,2328.643
-13084,-8328,43642,-701,36568,31703,9.381443,2331.77,1208.265,5259,6400,113,2328.454
-12992,-8472,41498,-658,34424,29447,8.14433,2331.409,1208.23,5213,6444,118,2328.351
-13036,-8460,43770,-669,36584,31463,8.195876,2332.869,1208.213,5212,6440,110,2328.024
-12944,-8368,43786,-659,36600,31543,1209.914,2329.364,1208.144,5238,6524,112,2328.471
-12976,-8284,41738,-682,34168,29959,1209.863,2331.924,1208.213,5294,6456,89,2328.179
-12892,-8380,43946,-692,36392,32007,9.948454,2331.718,1208.35,5218,6476,116,2327.835
-12872,-8312,44026,-680,36392,32023,1209.948,2332.165,1208.23,5204,6552,107,2328.196
-13024,-8348,41642,-643,34232,30247,7.783505,2331.581,1208.196,5198,6452,94,2327.663
-13000,-8372,43850,-689,36328,32199,8.625429,2332.285,1208.179,5220,6496,153,2328.299
-13024,-8336,44090,-687,36120,32247,1209.931,2332.079,1208.144,5285,6512,88,2329.399
-13004,-8392,41594,-652,34264,30359,9.432989,2332.406,1208.247,5195,6668,123,2329.278
-13092,-8296,44074,-676,36440,32231,1209.966,2332.526,1208.196,5206,6384,102,2328.986
-12996,-8388,44090,-648,36360,32247,8.195876,2332.972,1208.127,5212,6560,101,2331.048
-13024,-8304,41786,-708,34024,29879,1209.88,2332.079,1208.127,5212,6524,115,2329.45
-13072,-8420,44218,-691,34872,32183,1210.069,2334.192,1208.007,5242,6512,115,2329.519
-13072,-8288,44250,-706,35176,32119,7.766323,2331.598,1208.179,5263,6500,101,2328.832
-13024,-8428,41946,-654,33224,30631,1209.966,2330.155,1208.247,5279,6480,112,2325.069
-12904,-8380,44282,-688,35368,32856,1210.017,2329.45,1208.041,5223,6496,148,2330.618
-12984,-8332,44074,-656,35864,31575,1210.017,2332.852,1208.179,5231,6560,87,2329.536
-13072,-8324,41818,-662,33208,30055,1210.052,2331.168,1208.144,5267,6548,87,2330.567
-13000,-8328,44202,-689,35640,32727,1209.897,2332.199,1208.196,5235,6488,134,2327.388
-12964,-8364,39097,-673,38265,33208,1209.777,2331.048,1208.179,5185,6392,13,2327.096
-12868,-8488,0,-334,34728,31575,7.66323,2330.876,1208.454,4744,6408,-229,2326.804
-12948,-8408,42730,-661,35624,33336,8.986254,2330.447,1208.299,5036,6604,162,2327.045
-12912,-8396,43258,-407,35768,29719,1209.948,2330.997,1208.282,4849,6320,-10,2327.027
-13040,-8324,40505,-701,33144,30231,1209.931,2330.584,1208.196,5191,6400,96,2326.787
-13060,-8460,43098,-679,34536,28006,1209.88,2331.598,1208.144,5184,6392,156,2327.251
-12948,-8488,43866,-595,36168,28662,1209.966,2330.601,1208.076,5186,6320,119,2326.581
-12988,-8348,41994,-685,34328,26646,1209.863,2331.254,1208.179,5160,6376,112,2329.313
-12924,-8380,44490,-669,36456,29047,1209.88,2331.46,1208.316,5199,6436,132,2326.907
-13060,-8304,44602,-691,36344,29271,1209.811,2331.77,1208.265,5207,6600,132,2326.976
-13052,-8400,42490,-710,34488,27222,1209.777,2330.859,1208.127,5245,6472,90,2326.821
-12948,-8392,44538,-673,36584,28662,1209.828,2331.563,1208.265,5265,6432,81,2326.804
-13056,-8300,44842,-700,36616,28791,1209.931,2330.292,1208.093,5262,6476,88,2327.629
-13028,-8364,42250,-688,34600,26886,1209.931,2330.997,1208.213,5250,6440,120,2326.735
-12940,-8432,44810,-667,36696,28935,1209.845,2331.546,1208.093,5252,6452,104,2327.131
-13048,-8412,44858,-649,36664,28903,1209.931,2330.876,1208.093,5243,6436,79,2329.278
-13032,-8444,42634,-671,34392,27142,1209.897,2330.722,1208.11,5216,6472,117,2327.646
-12868,-8360,45050,-729,36696,29047,1209.863,2331.409,1208.161,5253,6392,123,2328.127
-13028,-8332,44842,-686,36616,29111,1209.88,2330.653,1208.144,5204,6460,93,2327.783
-12968,-8384,42682,-678,34616,27446,1209.931,2331.512,1208.076,5218,6556,123,2326.735
-12980,-8428,44922,-669,36696,29239,1210.034,2331.254,1208.316,5219,6400,83,2327.285
-13036,-8328,45243,-705,36760,29175,1209.948,2331.254,1208.247,5295,6436,110,2326.804
-13072,-8372,42842,-677,34744,27398,1209.914,2331.306,1208.23,5278,6420,82,2327.268
-13012,-8344,45339,-651,36776,29223,1210.017,2331.649,1208.161,5271,6392,124,2327.423
-12952,-8384,45067,-659,36905,29207,1209.897,2331.632,1208.402,5251,6460,116,2327.509
-12992,-8428,43034,-635,34760,27798,1209.897,2331.718,1208.144,5183,6444,137,2328.196
-12920,-8420,45275,-678,36856,29655,1209.828,2332.268,1208.213,5258,6296,110,2327.921
-12980,-8352,45050,-669,36969,29351,1209.777,2332.371,1208.161,5254,6428,111,2329.021
-13004,-8396,42778,-663,34648,27686,1209.828,2331.581,1208.23,5177,6248,121,2327.096
-13020,-8316,44986,-694,36905,29447,1209.759,2331.271,1208.076,5222,6504,98,2326.357
-13000,-8392,45307,-628,36889,29399,1209.828,2331.495,1208.024,5208,6388,115,2327.698
-13048,-8272,43098,-673,34792,27670,1209.811,2332.44,1208.076,5307,6572,78,2327.182
-12972,-8300,45179,-669,36840,29287,1210.086,2333.402,1208.179,5251,6524,112,2328.574
-13020,-8340,45323,-679,36680,29415,1209.88,2332.629,1208.11,5244,6580,138,2329.691
-13028,-8356,43018,-690,34904,27510,1209.966,2332.406,1208.127,5242,6508,84,2328.591
-13096,-8296,45115,-712,36873,29383,1209.88,2332.457,1208.213,5236,6552,165,2328.161
-13060,-8388,45067,-670,36985,29367,1209.931,2332.285,1208.35,5243,6516,109,2330.601
-13032,-8364,42826,-668,34568,27398,1209.966,2332.268,1208.196,5254,6400,112,2327.698
-13032,-8348,45323,-676,36856,29207,1209.983,2332.698,1208.127,5232,6412,112,2328.058
-12912,-8384,45323,-664,36905,29271,1209.948,2331.306,1208.179,5235,6312,94,2327.749
-13012,-8352,42874,-663,34712,27670,1209.966,2331.649,1208.213,5210,6468,75,2328.247
-13104,-8372,45163,-661,37001,29255,1209.863,2331.838,1208.23,5209,6440,95,2326.942
-12932,-8440,45083,-657,36953,29383,1209.863,2331.409,1208.179,5246,6316,87,2327.577
-13080,-8360,42842,-693,34920,27606,1210.086,2332.027,1208.23,5248,6436,113,2326.873
-12924,-8408,45115,-655,37017,29415,1209.845,2332.337,1208.144,5225,6364,111,2327.509
-13000,-8388,45050,-674,37129,29511,1209.863,2331.942,1208.161,5234,6464,107,2327.629
-13092,-8356,42714,-669,34904,27686,1209.966,2331.667,1208.179,5232,6608,97,2327.972
-13084,-8344,44906,-671,37129,29415,1209.811,2331.924,1208.247,5187,6380,129,2328.316
-12972,-8392,45083,-660,37097,29447,1209.931,2331.375,1208.127,5242,6540,98,2327.629
-13084,-8368,42938,-679,35848,27622,1209.914,2331.34,1208.127,5281,6576,110,2327.509
-12972,-8320,45131,-664,37065,29511,1209.845,2331.426,1208.316,5194,6476,164,2328.66
-12948,-8412,44890,-673,36953,29463,1209.759,2331.357,1208.144,5246,6404,113,2328.093
-13084,-8392,42618,-696,35048,27654,8.986254,2331.1,1208.196,5238,6476,127,2327.371
-12968,-8388,45163,-642,37209,29543,1209.966,2331.581,1208.076,5202,6536,133,2326.546
-13036,-8356,44890,-681,36905,29511,1209.966,2331.598,1208.179,5251,6468,113,2327.732
-13024,-8392,42682,-656,35000,27638,1209.914,2331.563,1208.11,5248,6572,62,2327.852
-13024,-8384,45131,-668,36937,29495,1209.88,2331.976,1208.213,5228,6340,128,2328.11
-13000,-8468,44986,-661,36985,29543,1209.948,2332.045,1208.265,5199,6632,142,2328.9
-12900,-8388,42618,-680,34744,27478,1210.0,2331.752,1208.196,5219,6436,145,2327.698
-13128,-8296,45018,-686,36808,29255,1209.845,2333.11,1208.161,5208,6460,96,2329.021
-13040,-8320,44778,-667,37081,29399,1209.794,2332.354,1208.161,5252,6508,111,2329.45
-13032,-8356,42090,-677,34824,27654,1210.137,2331.443,1208.179,5257,6360,123,2327.783
-13100,-8248,44810,-674,37337,29655,1209.897,2332.199,1208.041,5235,6456,117,2327.474
-13040,-8408,44762,-671,36985,29527,1209.863,2332.062,1208.127,5225,6660,140,2328.54
-13064,-8404,42298,-659,34824,27654,1210.0,2331.443,1208.024,5231,6452,80,2327.99
-13072,-8384,44858,-670,37161,29511,8.917525,2331.375,1208.265,5199,6536,162,2327.509
-13008,-8376,44986,-696,37145,29527,1209.983,2331.821,1208.076,5189,6384,117,2328.144
-13048,-8312,42714,-662,34840,27734,1209.88,2331.821,1207.938,5241,6340,100,2329.072
-13056,-8420,44810,-675,36969,29511,1209.931,2332.01,1208.127,5253,6544,92,2330.223
-12996,-8456,44906,-655,36969,29399,1209.948,2331.443,1207.955,5249,6508,89,2327.921
-13084,-8356,42426,-700,34856,27750,1209.931,2332.938,1208.127,5205,6400,116,2328.574
-13108,-8308,44698,-672,36792,29479,1209.897,2331.942,1208.058,5217,6312,93,2327.68
-13108,-8336,44970,-672,36840,29351,1210.052,2331.289,1208.196,5250,6508,102,2327.302
-13032,-8336,42394,-664,34808,27734,1209.794,2331.22,1208.179,5224,6504,129,2327.663
-13096,-8328,44826,-666,36873,29687,1209.914,2332.509,1208.161,5263,6564,88,2327.543
-13024,-8352,44826,-681,36905,29543,1209.948,2331.615,1208.179,5213,6664,102,2329.227
-13008,-8364,42314,-687,34680,27910,1209.897,2331.924,1208.196,5248,6580,99,2328.127
-13056,-8304,44906,-702,36953,29655,1209.845,2333.265,1208.179,5223,6380,92,2329.863
-13104,-8420,44746,-678,36648,29351,1209.983,2331.409,1208.282,5224,6584,116,2329.003
-13048,-8372,42442,-675,35000,27670,1210.034,2331.684,1208.282,5244,6380,110,2328.282
-13028,-8324,44666,-668,36408,29543,1209.948,2331.787,1208.333,5222,6536,133,2328.385
-13072,-8304,44810,-651,36921,29495,1209.948,2331.77,1208.213,5193,6472,128,2327.646
-12988,-8344,42410,-676,34808,27574,1209.966,2331.701,1208.368,5269,6472,121,2327.715
-13132,-8320,44826,-677,37161,29431,1210.017,2332.199,1208.368,5230,6400,113,2327.251
-12952,-8416,44986,-681,36921,29399,1209.863,2331.512,1208.247,5210,6512,136,2327.972
-12996,-8352,42730,-712,34648,27430,1209.897,2332.131,1208.265,5210,6448,123,2327.852
-12944,-8316,44906,-686,37017,29527,1209.794,2331.993,1208.368,5229,6436,121,2327.594
-13156,-8344,45050,-725,36937,29543,7.714777,2332.079,1208.23,5281,6460,102,2328.917
-13044,-8328,42506,-681,34712,27734,1209.983,2332.44,1208.299,5215,6472,95,2328.076
-12996,-8424,44890,-653,36856,29591,1209.966,2332.371,1208.282,5230,6424,118,2327.886
-13032,-8380,44906,-706,36921,29607,11.08247,2331.838,1208.144,5201,6356,134,2329.347
-12976,-8328,41322,-668,34904,27894,1209.845,2331.667,1208.385,5170,6348,129,2327.835
-12960,-8360,44762,-643,36728,29591,1209.948,2332.594,1208.196,5220,6480,105,2328.11
-12964,-8368,44778,-647,36792,29751,1209.794,2331.031,1208.299,5186,6472,129,2327.921
-12888,-8352,42026,-676,34808,27830,1209.966,2332.199,1208.196,5284,6448,81,2328.866
-13052,-8372,44650,-708,36616,29655,6.872852,2332.199,1208.282,5194,6404,116,2328.282
-13024,-8324,44474,-682,36792,29959,8.487972,2331.959,1208.23,5255,6448,98,2328.161
-13064,-8400,42282,-679,34776,28022,8.058419,2332.491,1208.23,5258,6472,105,2327.749
-12936,-8404,44730,-674,37081,29959,7.714777,2333.54,1208.11,5192,6500,136,2329.33
-13064,-8304,44506,-658,36840,29959,11.01375,2332.594,1208.127,5250,6428,116,2329.089
-13064,-8360,42042,-664,34840,28054,7.646048,2332.285,1208.196,5240,6580,100,2329.089
-13064,-8452,44474,-694,36873,30039,8.195876,2332.285,1208.179,5257,6372,101,2329.038
-13084,-8212,44474,-693,36856,29927,7.646048,2332.886,1207.887,5220,6380,100,2329.227
-13168,-8360,41850,-691,34616,27942,7.646048,2333.935,1208.161,5206,6520,92,2329.433
-13132,-8324,44458,-634,36873,30055,6.872852,2333.677,1208.265,5211,6376,144,2329.158
-12936,-8276,44058,-661,36840,29975,8.127148,2331.924,1208.093,5224,6428,83,2328.883
-13052,-8384,41962,-679,34712,28150,7.646048,2331.856,1208.161,5211,6408,138,2327.491
-13100,-8352,44506,-676,36728,30023,8.195876,2332.32,1208.196,5247,6412,101,2328.832
-13008,-8336,44298,-654,36808,30135,1210.017,2332.337,1208.144,5233,6480,117,2328.557
-13028,-8384,42234,-665,34728,28374,1210.0,2331.89,1207.99,5180,6480,134,2328.935
-12976,-8320,44378,-668,36760,29959,7.766323,2332.199,1208.213,5180,6488,109,2328.9
-12944,-8328,44538,-678,36808,29543,8.14433,2334.089,1208.144,5195,6572,106,2329.622
-13068,-8332,41994,-694,34600,28246,8.127148,2331.993,1208.058,5236,6464,112,2328.832
-13004,-8356,44538,-668,36840,29959,6.872852,2331.993,1208.299,5229,6564,125,2328.711
-13076,-8344,44410,-685,36873,29367,7.302405,2331.907,1208.144,5244,6444,132,2328.746
-13096,-8308,42042,-648,34648,28214,8.195876,2331.959,1208.247,5246,6492,75,2327.526
-13016,-8328,44474,-659,36824,30167,7.714777,2330.447,1208.007,5230,6508,124,2324.278
-12844,-8340,44586,-613,36937,30007,1209.897,2329.313,1208.093,5110,6528,66,2324.519
-12988,-8320,42298,-673,34920,28422,1209.914,2327.904,1208.11,5106,6548,103,2322.045
-13052,-8412,44314,-666,36664,30119,8.625429,2328.368,1208.213,5183,6488,146,2321.976
-12948,-8476,44490,-679,36808,30295,7.285223,2335.052,1208.247,5243,6572,108,2330.189
-13072,-8348,42138,-703,34744,28118,7.353952,2332.388,1208.213,5230,6576,93,2328.832
-13040,-8284,44618,-657,36824,30039,1209.931,2332.079,1208.11,5263,6464,88,2328.265
-13104,-8332,44458,-665,36856,29943,7.302405,2332.148,1208.247,5243,6480,121,2328.574
-13028,-8388,42138,-649,34728,28086,1209.966,2331.392,1208.161,5200,6416,130,2328.557
-13004,-8356,44346,-622,36873,29959,8.178694,2332.131,1208.35,5151,6464,116,2328.316
-12992,-8232,44346,-685,36873,30199,8.556701,2331.735,1208.436,5251,6496,84,2328.402
-12960,-8460,41434,-661,34712,28022,8.195876,2332.509,1208.316,5265,6492,106,2328.385
-13020,-8268,44570,-686,36312,29911,7.302405,2332.251,1208.591,5279,6340,114,2328.952
-12992,-8312,44298,-694,36632,29911,7.714777,2332.182,1208.265,5224,6612,108,2328.368
-13064,-8328,42330,-693,34904,28150,9.089347,2332.165,1208.161,5285,6424,117,2327.749
-13044,-8408,44554,-700,36921,29991,1209.966,2329.983,1208.35,5297,6388,117,2326.203
-13072,-8404,44810,-737,37305,30199,1210.017,2329.295,1208.247,5179,6548,129,2323.797
-13044,-8336,42346,-662,35016,28454,1209.897,2327.423,1208.316,5224,6488,80,2332.886
-13108,-8420,44666,-675,36905,29959,1209.897,2331.495,1208.419,5124,6400,134,2324.897
-13024,-8340,44762,-699,36584,29911,1209.914,2328.746,1208.488,5228,6492,113,2322.732
-13024,-8412,42250,-703,34632,27910,1209.948,2333.024,1208.436,5273,6444,130,2329.691
-12900,-8300,44602,-637,36216,29911,1209.845,2334.845,1208.299,5267,6496,82,2326.46
-13076,-8380,44410,-699,36856,29863,1209.794,2329.674,1208.127,5230,6308,118,2323.282
-13084,-8400,42490,-626,34872,28390,1209.828,2328.729,1208.213,5242,6440,94,2322.801
-13124,-8320,44586,-660,37129,30055,1209.897,2328.917,1208.402,5212,6336,93,2322.371
-13024,-8356,44506,-663,37049,30199,1209.759,2328.643,1208.196,5214,6436,103,2322.491
-13056,-8368,42106,-678,35080,28406,1209.931,2333.436,1208.299,5230,6496,87,2329.124
-13052,-8376,44554,-654,37161,30247,1209.863,2335.773,1208.144,5243,6480,137,2330.808
-12960,-8396,44298,-704,37129,30167,1209.897,2333.265,1208.35,5211,6392,102,2328.54
-13016,-8296,41994,-703,34824,28150,1209.845,2332.801,1208.299,5261,6568,98,2328.299
-12980,-8436,44314,-648,37241,29959,8.625429,2332.818,1208.144,5266,6460,77,2328.144
-13012,-8356,44202,-663,36969,30103,8.608248,2333.076,1208.316,5208,6424,115,2328.625
-13108,-8448,41626,-669,34856,28406,1209.914,2332.027,1208.299,5275,6492,88,2327.715
-13024,-8364,44058,-686,37177,30119,1209.897,2332.766,1208.161,5236,6508,133,2328.058
-12992,-8304,44058,-641,37129,29991,1209.811,2332.577,1208.144,5238,6480,104,2322.869
-13080,-8356,41818,-651,34568,28422,1209.897,2331.203,1208.247,5262,6400,117,2325.739
-13148,-8464,44298,-647,37289,30295,1209.966,2329.313,1208.23,5196,6440,160,2322.474
-13032,-8300,44074,-678,37129,29943,1209.777,2328.488,1208.076,5256,6424,115,2322.766
-13136,-8328,41962,-601,35128,28310,1209.794,2328.265,1208.144,5227,6540,133,2320.464
-13104,-8356,44474,-666,36921,29959,1209.966,2333.471,1208.024,5237,6436,102,2331.117
-12932,-8240,43962,-659,37129,29959,1209.931,2329.261,1208.024,5224,6472,108,2324.502
-13056,-8344,41786,-663,35240,28166,1209.794,2328.625,1208.127,5259,6448,104,2323.058
-13096,-8272,44298,-697,37337,30135,1209.897,2328.866,1208.11,5204,6512,27,2322.285
-13140,-8328,44298,-658,37033,30103,1209.759,2328.265,1208.179,5280,6536,82,2322.869
-13012,-8352,40633,-644,34984,28422,1209.777,2328.643,1208.058,5256,6608,110,2321.031
-13012,-8292,44010,-672,36985,30295,1209.948,2336.203,1207.973,5245,6668,129,2331.134
-13032,-8240,43866,-678,36937,30119,1209.914,2337.01,1208.058,5249,6412,91,2334.691
-12932,-8372,41306,-662,34808,28230,1209.777,2336.031,1208.024,5258,6596,117,2327.32
-12964,-8244,43898,-666,37049,30247,1209.88,2333.385,1207.904,5242,6380,122,2328.436
-13100,-8320,44042,-709,37241,30135,1209.88,2332.698,1208.076,5298,6432,104,2328.179
-13048,-8428,41594,-689,35032,28310,1209.914,2332.423,1208.23,5253,6444,99,2328.333
-13036,-8288,43802,-762,37641,29943,1209.914,2333.368,1208.23,5360,6576,88,2328.66
-13036,-8372,43930,-664,37225,30007,1209.966,2332.251,1208.007,5235,6512,137,2329.124
-12992,-8436,41594,-638,35160,28182,1209.897,2333.058,1207.973,5234,6344,140,2329.536
-12944,-8268,44138,-665,37193,30023,1209.914,2333.729,1208.076,5253,6604,91,2329.038
-12996,-8368,44042,-677,37129,30263,1210.0,2332.801,1208.144,5273,6504,96,2328.522
-13112,-8388,41946,-669,35128,28262,1209.948,2332.663,1208.024,5256,6420,116,2329.863
-13040,-8248,43946,-693,37177,30263,1209.983,2333.454,1208.127,5225,6404,114,2329.209
-13108,-8352,44058,-674,37129,30199,1209.845,2332.835,1207.938,5198,6404,102,2328.935
-13024,-8308,41770,-674,35048,28406,1210.017,2333.299,1207.921,5285,6560,124,2328.746
-13008,-8384,43882,-675,37129,30071,1210.052,2333.402,1207.938,5230,6560,81,2329.33
-13008,-8308,44122,-687,37113,30199,1210.0,2332.972,1207.973,5237,6568,118,2328.866
-13008,-8324,41834,-648,35112,28406,1209.931,2332.818,1208.076,5190,6512,124,2330.0
-13040,-8340,44106,-698,37129,30295,1210.086,2332.698,1208.144,5199,6364,115,2328.66
-13124,-8296,44298,-656,37129,30151,1210.172,2331.014,1208.247,5242,6468,86,2326.838
-13076,-8220,41914,-683,35128,28342,1210.052,2329.192,1208.041,5242,6412,61,2323.385
-13040,-8364,44154,-664,37129,29975,1209.931,2329.364,1207.99,5277,6568,105,2322.921
-13068,-8348,43962,-649,37177,30215,1209.845,2328.591,1207.955,5219,6428,111,2322.491
-12964,-8284,42234,-663,35384,28262,1210.189,2333.849,1207.818,5251,6448,150,2329.553
-13032,-8444,44010,-664,37353,29959,1210.017,2333.797,1208.076,5227,6416,33,2331.014
-12968,-8368,44090,-699,36969,30119,1210.052,2332.526,1208.179,5212,6628,125,2328.333
-12984,-8360,41962,-646,35080,28342,1210.103,2332.612,1208.093,5260,6400,113,2328.832
-13120,-8416,44154,-694,37273,30119,1210.137,2333.522,1207.938,5193,6464,43,2328.986
-13020,-8220,44410,-668,37353,30119,1209.983,2332.44,1208.093,5258,6448,122,2328.488
-13044,-8344,41946,-666,35080,28214,1210.086,2332.165,1207.973,5246,6432,103,2330.653
-12944,-8360,44138,-782,37593,29767,1209.88,2333.368,1207.973,5477,6324,184,2328.488
-13020,-8376,44522,-729,37385,30023,1209.948,2338.866,1207.955,5276,6588,154,2333.161
-13068,-8404,42042,-677,35080,28150,1209.828,2335.395,1208.041,5206,6536,135,2331.942
-13032,-8400,43962,-697,37177,30231,1209.966,2336.1,1208.024,5250,6604,91,2336.014
-12944,-8348,44026,-660,37113,30039,1210.12,2344.227,1208.041,5210,6436,118,2338.797
-13024,-8348,40505,-644,35080,28406,1210.223,2339.691,1208.196,5227,6448,116,2331.924
-12988,-8388,44042,-677,37305,30199,1209.948,2334.828,1208.161,5283,6416,83,2330.189
-13096,-8320,43898,-665,37209,30071,1209.914,2333.402,1208.196,5219,6392,73,2331.22
-13004,-8292,41530,-781,34904,28342,1209.948,2333.419,1208.041,5317,6496,135,2331.907
-13028,-8332,44218,-638,37209,30215,1209.966,2336.306,1208.179,5221,6584,124,2332.68
-12976,-8308,43994,-676,37225,30263,1210.0,2335.979,1208.076,5348,6516,154,2332.835
-13036,-8384,41818,-687,35096,28534,1210.052,2333.935,1208.007,5168,6532,118,2330.859
-13040,-8356,44474,-689,37161,30471,1209.983,2333.574,1208.385,5241,6396,100,2330.756
-13044,-8356,44378,-683,37225,30471,1209.948,2332.921,1208.23,5262,6408,91,2329.725
-13120,-8404,42250,-682,35128,28534,1209.966,2332.852,1208.144,5284,6388,102,2331.529
-12984,-8368,44506,-641,37385,30455,1209.863,2333.11,1208.127,5220,6392,124,2329.674
-12916,-8376,44522,-650,37481,30327,1209.828,2333.557,1208.144,5242,6344,75,2329.948
-13004,-8388,42026,-688,35336,28518,1209.931,2334.364,1208.265,5231,6512,108,2326.581
-13048,-8348,44106,-654,37129,30471,1209.863,2333.952,1208.282,5226,6368,173,2331.014
-12976,-8396,44394,-652,37193,30455,1210.034,2333.299,1208.11,5225,6504,115,2331.46
-13028,-8336,42218,-701,35080,28679,1209.88,2337.663,1207.973,5251,6524,132,2332.715
-13072,-8324,44602,-657,37337,30487,1209.863,2332.096,1207.99,5238,6568,134,2328.488
-13048,-8284,44234,-697,37129,30439,1209.897,2331.323,1208.161,5274,6424,99,2327.096
-13032,-8304,42250,-675,35176,28470,1209.863,2330.962,1208.076,5188,6528,102,2327.32
-13092,-8472,44442,-703,37433,30311,1209.897,2332.096,1208.127,5210,6428,82,2327.732
-13028,-8408,44474,-692,37369,30215,1209.966,2331.289,1208.196,5204,6452,112,2328.952
-13072,-8364,41802,-666,35256,28342,1209.914,2331.306,1208.385,5209,6328,125,2326.718
-13012,-8368,44298,-691,37305,30471,1210.034,2331.993,1208.282,5239,6456,105,2327.612
-13048,-8384,44314,-631,37353,30455,1210.017,2331.014,1208.35,5159,6328,114,2328.007
-12908,-8296,42170,-658,35128,28598,1209.897,2331.392,1208.23,5272,6436,83,2329.003
-13040,-8344,44218,-662,37225,30375,1209.931,2331.563,1207.938,5227,6368,144,2328.385
-12988,-8284,44570,-678,37353,30263,1209.983,2330.911,1208.058,5224,6404,103,2327.663
-13072,-8328,42218,-692,35288,28566,1209.914,2330.653,1208.076,5239,6472,120,2326.787
-13032,-8372,44378,-685,37209,30439,1209.914,2331.409,1208.179,5194,6492,100,2326.993
-12940,-8348,44378,-681,37465,30567,1210.0,2330.756,1208.127,5220,6456,109,2326.821
-12944,-8336,42330,-691,35304,28422,1210.0,2330.67,1207.921,5216,6508,121,2326.718
-13044,-8332,44362,-703,37449,30407,1209.931,2331.632,1208.127,5260,6424,95,2326.563
