accel_x,accel_y,fsr_1,gyro_z,fsr_3,fsr_2,ultrasonic_1,ultrasonic_2,ultrasonic_3,gyro_x,accel_z,gyro_y,ultrasonic_4
-6292,748,40377,80,45034,41226,2343.179,1207.423,2343.574,4973,17668,81,1208.454
-6060,568,40105,-651,46955,41754,2339.141,1207.594,2338.024,5230,17804,176,1208.66
-6136,544,41498,-665,45291,41770,2339.828,1207.646,2340.67,5253,17840,134,1208.522
-6008,512,39849,-721,46779,42346,2339.622,1207.577,2339.656,5256,17868,152,1208.694
-6040,480,40489,-661,46715,42298,2339.897,1207.457,2339.381,5233,17824,102,1208.797
-6124,544,39609,-693,47291,41978,2338.746,1207.491,2337.801,5234,17796,107,1208.814
-6024,516,34792,-707,48955,42298,2337.886,1207.44,2337.354,5292,17840,67,1208.66
-5972,476,37305,-405,49019,41818,2338.866,1207.474,2337.663,5126,17908,79,1208.625
-6000,456,37689,-696,46395,43002,2338.196,1207.594,2336.598,5241,17968,148,1208.591
-5976,504,38521,-629,45275,43866,2338.454,1207.56,2337.972,5204,17872,151,1208.608
-6016,556,38297,-698,45723,44170,2338.127,1207.457,2337.457,5253,17792,100,1208.677
-6004,476,38121,-664,45115,44330,2338.213,1207.543,2336.718,5245,17868,88,1208.711
-5980,452,36616,-657,47675,44506,2337.526,1207.44,2337.027,5256,17748,63,1208.746
-5972,528,37113,-680,49420,44026,2338.024,1207.629,2336.615,5239,17920,110,1208.471
-5972,516,37849,-677,49147,44234,2337.904,1207.543,2336.22,5259,17940,123,1208.643
-6052,700,35352,-697,49708,44250,2337.938,1207.509,2337.921,5251,17724,91,7.835052
-5964,512,32119,-683,50012,44698,2337.096,1207.491,2336.151,5225,17956,113,8.247422
-5972,536,31847,-704,49932,44602,2338.196,1207.594,2336.237,5272,17868,143,1208.643
-5924,580,33048,-653,49884,44458,2337.268,1207.629,2337.131,5231,17716,128,1208.694
-5964,524,32279,-677,49932,44570,2337.44,1207.715,2336.323,5238,17780,107,1208.643
-5908,508,32583,-681,47483,44458,2337.526,1207.612,2336.117,5223,17768,62,1208.574
-5944,652,31831,-696,48091,45835,2337.526,1207.44,2337.594,5248,17700,173,1208.608
-5888,532,23925,-690,49916,46347,2337.612,1207.56,2336.512,5295,17896,126,1208.574
-5904,612,28534,-658,49596,45179,2337.56,1207.698,2336.186,5231,17924,99,7.010309
-6068,496,32519,-662,48251,44298,2337.302,1207.612,2337.869,5234,17852,134,1208.402
-5948,576,33384,-659,48603,44282,2337.113,1207.698,2336.271,5248,17704,145,8.659794
-6156,484,26262,-795,50668,46011,2337.148,1207.646,2335.859,5385,18020,147,1208.436
-5988,500,28855,-683,51100,46107,2337.079,1207.423,2336.667,5272,17856,202,1208.54
-5872,516,30135,-656,51244,46699,2337.027,1207.594,2335.756,5255,17880,140,1208.488
-5864,520,27542,-668,51276,46779,2337.406,1207.526,2335.704,5233,17876,79,5.120275
-5964,568,28134,-687,51308,47099,2335.808,191.8041,2336.1,5243,17992,114,4.707904
-5932,548,26934,-653,51068,46587,2335.636,187.6117,2335.447,5207,17960,120,5.120275
-5924,412,27494,-679,51196,46875,2335.859,187.5945,175.4811,5234,17848,80,4.707904
-5912,548,26886,-663,51276,47227,2335.979,186.7526,175.9794,5243,17932,94,4.707904
-5928,560,28118,-710,51468,47195,2335.567,187.6289,176.3574,5262,17964,131,4.707904
-5956,424,25606,-699,51388,46827,2335.808,188.4192,175.4467,5229,17960,72,5.137457
-5876,476,28855,-669,51260,46539,2335.326,189.7079,2335.481,5263,17896,136,4.707904
-5916,592,27446,-691,51676,46843,2335.223,1207.56,2334.106,5238,17804,73,4.707904
-5892,512,28598,-707,51388,46299,2335.412,1207.526,2334.725,5232,17956,64,6.030928
-5884,472,31367,-670,50876,46555,2336.409,1207.56,2336.357,5235,17864,143,1208.677
-5924,532,32888,-669,50876,47003,2336.306,1207.68,2335.258,5257,17896,117,6.804123
-5872,432,28182,-665,50012,42234,2336.684,1207.612,2335.0,5244,17836,126,1208.522
-5928,596,25174,-668,49067,44810,2336.254,1207.783,2335.979,5209,17828,74,11.7354
-5960,540,27398,-662,48987,45659,2336.203,1207.801,2335.378,5245,17916,122,15.49828
-5940,548,27638,-665,49628,45659,2336.512,1207.835,2334.811,5243,17788,96,11.66667
-5948,564,27670,-707,49740,45387,2335.636,1207.594,2336.598,5263,17820,120,1208.643
-5976,516,28662,-684,49612,45787,2335.859,1207.715,2335.223,5255,17864,89,1208.574
-5992,528,29783,-680,50044,45835,2336.357,1207.629,2335.172,5260,17896,139,8.127148
-5944,580,33768,-687,49708,45691,2335.928,1207.715,2335.584,5239,17944,84,1208.557
-5984,544,31159,-687,48395,44394,20.84192,1207.663,2335.189,5265,17904,167,1208.729
-5844,580,28182,-704,49948,39033,2336.014,1207.732,2335.258,5224,17820,114,1208.729
-5856,508,17092,-639,50092,29799,2336.117,1207.663,2335.447,5275,17748,64,1208.677
-6072,136,18836,-659,43018,29351,2336.306,1207.646,2335.395,5218,17836,185,1208.66
-6120,128,22485,-703,43226,30887,2336.117,1207.715,2335.309,5274,17860,155,1208.746
-6152,148,25110,-831,44042,30199,2335.55,1207.594,2335.309,5342,17800,73,1208.54
-6056,280,21029,-683,49612,29191,2335.584,1207.68,2334.828,5240,17724,97,8.024055
-6344,556,21317,130,47851,47947,2335.979,187.3368,176.512,5456,18320,-320,1208.952
-5852,356,0,-720,51068,44618,2335.584,192.0275,173.1959,5219,17908,19,6.254295
-5800,400,2416,-751,51564,45099,2335.859,188.1787,174.433,5288,17984,168,5.893471
-5744,388,0,-683,51068,44634,2336.083,186.9416,173.5567,5242,17924,119,1208.557
-5816,364,0,-642,50956,44538,2335.773,181.1168,173.9863,5240,17792,125,1208.488
-5772,388,0,-666,50588,43706,2336.168,1207.629,172.646,5233,17876,104,1208.608
-5704,512,0,-662,50956,45483,2335.894,188.1615,174.7766,5247,17840,115,1208.625
-5804,340,0,-657,50956,44954,2335.601,1207.68,175.1718,5267,18068,134,1208.608
-5820,456,17236,-660,51724,45899,2335.086,189.1237,173.6254,5215,17864,156,12.45704
-5780,372,17444,-740,50988,45435,2335.258,187.3883,174.0378,5293,18076,96,14.17526
-5816,412,17236,-659,51052,45355,2334.45,188.6598,173.6082,5258,18004,88,1208.711
-5896,420,14035,-663,50972,45339,2334.622,187.3539,173.9863,5249,17908,93,1208.797
-5816,380,14867,-658,51004,45403,2334.605,186.9244,174.4673,5236,17772,117,1208.832
-5896,412,14867,-661,50956,45050,2334.794,189.1237,174.0206,5248,17912,124,1209.33
-5892,460,15795,-669,51292,45323,2334.588,188.299,173.1615,5245,17864,146,1208.677
-5828,468,15347,-648,50940,45483,2334.897,187.4742,173.1443,5252,17940,110,1208.54
-5660,328,15539,-657,51116,45819,2335.0,186.1856,174.0034,5250,18084,122,1208.677
-5796,368,15523,-679,50732,45723,2334.141,187.8522,173.5739,5240,17856,121,1208.763
-5760,480,16019,-692,51004,45755,2334.192,188.7113,173.5567,5234,17920,101,1208.729
-5844,420,2720,-675,52076,42282,171.0137,187.8866,173.2646,5219,17880,119,1208.797
-5980,404,7025,-841,22949,41210,141.7698,1207.715,178.1959,5358,17796,203,1208.711
-6052,888,0,314,20741,45579,2334.433,1207.663,177.5945,5752,17892,275,8.127148
-6208,1140,0,-524,20853,45835,2333.66,193.7629,178.9691,5351,17652,63,6.872852
-6132,1188,0,-674,23253,44730,2334.124,192.4399,178.0756,5248,17804,69,6.030928
-6092,1280,0,-398,25846,44010,2334.124,193.8832,134.9485,5150,17676,115,1208.952
-6164,1172,0,-779,26870,43402,2333.643,190.8935,176.9416,5368,17628,-101,1208.832
-6048,1220,0,-692,26726,45243,2333.179,191.3574,177.3539,5230,17760,113,12.45704
-5896,1432,0,-539,27222,45995,2334.209,192.3196,177.5258,5256,17772,41,1208.935
-6012,1256,0,-695,27702,46235,2332.732,1207.783,178.3677,5291,17928,45,1208.935
-5988,1264,0,-665,28566,46843,2332.406,192.5773,176.0653,5256,17912,131,14.12371
-5940,1196,8962,-604,32872,45995,2333.402,1207.766,176.2027,5205,17876,110,1208.625
-6004,1180,23301,-706,45915,46347,2333.711,1207.732,2334.966,5139,17832,141,6.391753
-5712,732,23541,-619,50300,39097,2333.711,1207.818,2333.711,5316,17992,108,9.5189
-5932,656,25446,-663,50620,39177,2333.23,1207.749,177.457,5221,17932,113,13.59107
-5832,796,24886,-700,50620,39977,2333.677,1207.801,2334.811,5235,17872,143,8.247422
-5864,612,27030,-675,50652,39689,2331.546,1207.663,2334.381,5261,17868,126,9.089347
-5972,720,27142,-654,50716,40201,2332.749,1207.698,177.4399,5220,17960,118,11.18557
-5804,740,27446,-680,50700,40057,2333.351,1207.749,177.457,5246,17948,85,11.95876
-5808,640,27062,-675,50780,40201,2333.282,1207.663,175.6873,5235,17896,121,12.02749
-5896,708,27478,-650,50956,40217,2333.832,1207.646,177.8522,5234,17904,91,12.38832
-5872,668,28278,-677,50700,39689,2333.076,191.4777,2334.88,5231,17800,126,1208.866
-5852,696,29255,-673,50492,39897,2333.127,1207.715,178.299,5250,17888,118,1208.814
-5764,620,29943,-687,50796,39977,2333.351,1207.732,179.0893,5274,17888,101,1208.849
-5816,756,30631,-676,50716,40249,2332.68,1207.818,2334.691,5230,17828,118,1208.729
-5904,648,30903,-686,50956,40345,2332.886,190.189,2334.244,5242,17916,119,1208.9
-5908,740,30711,-667,50748,40665,2333.351,1207.801,2333.78,5242,17872,93,1208.746
-5880,608,30375,-658,50956,40633,2332.217,1207.973,2334.158,5241,17852,105,1208.9
-5820,724,30119,-685,50956,40361,2331.323,1207.904,2333.866,5244,17976,109,1208.832
-5800,704,28438,-685,50956,40569,2331.186,1207.887,2333.814,5261,17792,93,1208.9
-5932,656,28518,-695,50764,39833,2332.457,1207.921,2334.33,5247,17888,129,1208.574
-5804,728,30183,-671,49420,40953,2331.409,1207.973,2333.522,5246,17840,130,1208.591
-5956,704,30951,-665,49388,41066,2333.299,1207.887,2333.66,5229,17892,114,1208.677
-5940,664,31479,-696,49660,41226,2332.337,1207.904,2335.0,5242,17768,105,1208.746
-5836,720,31991,-667,49788,41306,2332.027,190.9794,2333.694,5249,17960,117,1208.814
-5756,652,31223,-705,49596,41754,2332.509,1207.818,2333.866,5231,17820,84,1208.746
-5940,564,26662,-657,49147,42234,2332.062,1207.835,2334.021,5196,17840,31,1208.952
-5792,616,29927,-677,49308,41914,2332.285,189.3471,2333.952,5229,17768,108,1208.883
-5760,780,21445,-676,49420,42538,2331.924,1208.058,2333.368,5227,17920,105,13.40206
-5680,572,23013,-515,49948,42826,2331.632,1208.041,2334.038,5207,17888,106,13.48797
-5836,1108,29463,-1592,50732,40617,2331.168,1207.869,2333.883,4184,18384,373,1208.814
-5768,560,33944,-657,50924,33400,2331.237,1207.938,2333.643,5250,17948,270,1208.78
-5848,716,31991,-688,51868,35848,2330.945,4.879725,2334.381,5170,17888,-25,1208.763
-5844,628,34216,-744,51468,30375,2331.563,1207.904,2334.588,5390,17804,-41,1208.591
-5752,848,0,-680,46891,44202,2332.01,1207.955,2334.089,5098,18024,-230,1208.729
-5864,728,5665,-647,44026,44378,2331.563,1208.024,2334.278,5220,17832,68,8.487972
-6040,748,28598,-677,43002,41066,2331.495,20.53265,2334.192,5254,18156,220,1208.729
-5836,640,30583,-690,41994,40201,2331.323,20.63574,2333.986,5279,17988,157,1208.763
-5920,712,29655,-665,42298,40697,2330.464,20.70447,2334.485,5236,17880,90,13.52234
-5872,792,30951,-656,41914,39513,2329.605,19.7079,2333.677,5223,17900,105,7.525773
-5952,808,31127,-645,42474,40057,2329.502,19.3299,2333.505,5241,17792,104,8.436426
-5868,720,32023,-715,42618,40201,2330.739,19.26117,2333.832,5231,17944,121,8.367698
-5928,808,32519,-642,42522,40009,2330.876,19.20962,2333.763,5253,17940,95,7.525773
-5980,800,33048,-695,42506,39865,2331.375,19.62199,2333.729,5224,17812,117,7.542955
-5860,736,31831,-682,42762,40217,2331.083,19.57045,2334.192,5230,17772,131,7.938144
-5888,840,32263,-642,46171,41482,2330.653,18.50515,2333.763,5224,17820,-14,1208.763
-5940,772,31495,-695,46955,42810,2331.031,18.14433,2334.261,5245,17900,90,12.62887
-5948,684,32743,-704,46363,43370,2330.601,17.18213,2334.106,5240,17884,135,9.604811
-5796,784,34136,-682,46619,43802,2330.223,1207.973,2333.591,5243,17884,95,8.797251
-5840,732,32087,-639,46555,43882,2330.601,1208.093,2332.955,5239,17960,100,8.797251
-5832,732,32519,-660,46459,43786,2330.24,18.8488,2333.368,5245,17896,113,10.89347
-5964,664,32856,-666,46635,43898,2330.137,17.16495,2333.333,5274,17840,113,8.298969
-5844,768,31255,-673,45467,42922,2330.618,16.1512,2333.299,5283,18020,105,6.993127
-5896,744,33704,-661,41834,43274,2329.588,16.46048,2333.986,5252,17812,52,6.099656
-5988,860,33768,-679,42058,43258,2329.948,16.37457,2333.66,5240,17996,103,5.687285
-5896,696,34024,-639,44714,43386,2330.395,16.16838,2333.763,5240,17840,98,6.563574
-5896,720,34664,-670,45611,43434,2330.052,16.1512,2333.969,5218,17800,104,6.030928
-5824,776,34904,-654,45563,43418,2329.931,16.03093,2333.265,5218,17940,152,6.872852
-5992,724,35240,-648,45691,43626,2330.017,15.73883,2333.351,5234,17820,141,6.85567
-5944,680,35848,-644,45803,43770,2329.742,15.44674,2333.54,5221,17884,110,6.030928
-5860,612,35704,-680,45835,43418,2329.622,14.94845,2333.952,5254,17912,93,6.030928
-5940,764,36072,-686,45883,43690,2329.863,15.56701,2333.746,5251,17700,139,6.030928
-5928,600,36344,-675,45915,43642,2329.038,15.97938,2333.196,5229,17908,111,6.030928
-5888,716,36104,-643,45147,43786,2328.574,16.09966,2333.454,5274,17892,101,6.030928
-5924,752,36632,-662,46267,43770,2331.168,15.73883,2333.832,5250,17908,75,6.030928
-5896,768,36584,-693,46251,43994,2329.656,16.13402,2334.45,5236,17768,100,6.030928
-5892,724,35592,-640,46347,43834,2330.12,17.06186,2333.883,5254,17904,102,6.512027
-5860,768,34424,-683,43690,43466,2330.223,16.75258,2333.746,5228,17752,142,6.030928
-5868,796,30199,-650,42570,40169,2329.485,1208.058,2335.103,5277,17744,131,7.474226
-5872,776,31271,-659,42826,41226,2329.467,21.83849,2334.502,5204,17900,113,7.044673
-5772,788,31239,-673,43194,41466,2329.845,22.38832,2333.247,5231,18052,102,8.367698
-5912,664,30919,-656,43130,41834,2329.313,21.06529,2333.351,5251,17828,99,7.457045
-5848,828,31159,-621,44986,41722,2329.897,1207.955,2334.261,5236,17916,133,7.233677
-5980,720,28214,-659,47563,42794,2329.57,1207.955,2333.677,5230,17792,97,7.628866
-5772,800,29031,-719,47883,43290,2329.519,1208.041,2333.917,5285,17848,59,8.006873
-5904,668,29719,-647,47739,43354,2329.553,1207.869,2333.677,5243,17988,108,1209.089
-5812,744,25254,-725,47371,44298,2329.588,1207.921,2333.78,5317,17812,78,1208.866
-5892,664,20629,-736,47227,47035,2329.674,1207.887,2333.643,5281,17844,-14,1208.866
-5896,696,28150,-655,48491,43578,2329.485,1207.783,2333.265,5244,18016,118,1209.107
-5780,744,28326,-660,48747,41946,2330.069,24.60481,2332.869,5209,17936,117,1208.849
-5796,724,30055,-676,48827,41306,2329.399,1207.955,2333.488,5238,17932,108,14.12371
-5796,768,28198,-670,49340,38073,2329.192,1207.835,2333.368,5237,17928,104,9.982818
-5604,572,28070,-703,46875,44522,2330.034,1208.007,2333.316,5090,17976,35,1208.746
-5888,636,28598,-593,48475,41370,2329.45,1207.973,2333.814,5255,18108,85,9.037801
-5744,504,29703,-717,49660,41498,2329.141,1207.955,2332.783,5274,18012,176,10.10309
-5896,628,31495,-645,47931,42154,2329.209,1208.024,2333.058,5236,18116,101,1208.9
-6040,496,32487,-703,46827,35768,2328.935,1207.869,2333.024,5306,18012,49,9.209621
-5848,460,29959,-762,48667,26422,2329.399,1207.904,2333.316,5027,17840,-44,6.04811
-5756,464,33832,-732,45179,26502,2329.588,1207.698,2332.904,5283,17996,140,6.563574
-6016,404,35176,-643,44970,26726,2329.209,1207.973,2333.9,5182,17944,92,7.835052
-5844,476,34008,-679,45115,26982,2328.677,21.66667,2333.711,5249,17856,114,6.494845
-5880,500,35032,-688,45579,27190,2329.416,1207.577,2332.869,5282,17772,120,1208.814
-5796,408,32663,-703,46875,25046,2330.12,1207.732,2334.244,5267,17872,105,1208.935
-5972,544,32984,-696,46875,27126,2329.57,22.49141,2333.9,5254,17904,100,1208.746
-5884,508,33576,-697,47307,27542,2329.364,1207.715,2333.127,5231,17756,140,1208.952
-5868,492,33768,-680,47531,28006,2329.261,1207.732,2333.368,5250,17860,127,1208.935
-6000,452,31415,-659,47659,27638,2329.038,1207.68,2332.886,5244,17844,145,1208.797
-5876,480,28246,-705,50284,34600,2329.725,1207.783,2333.677,5228,17992,137,8.487972
-5844,440,29079,-1001,35976,42762,2329.313,1207.801,2333.711,5323,18052,42,1208.814
-5984,620,31271,-743,29911,43162,2329.124,19.20962,2333.11,5269,17892,148,6.752577
-5848,688,26134,-637,33032,44858,2328.866,1207.715,2333.316,5239,17876,106,1208.694
-5808,556,29159,-925,35240,45323,54.12371,188.3677,174.3643,5327,17940,72,7.439862
-5936,628,29495,-674,34024,45851,53.59106,190.4811,176.4261,5213,17932,111,1208.746
-5952,484,30439,-667,35432,46347,123.2818,192.2165,174.3299,5210,17924,78,11.66667
-5980,584,20228,-652,46107,44858,2329.175,1207.783,2333.351,5235,17932,123,1208.677
-5940,592,29271,-696,46539,44650,2328.797,1207.749,2333.127,5237,17916,96,13.47079
-5932,436,30711,-656,47723,44058,2329.33,1207.732,2333.299,5225,17772,113,1208.917
-5920,484,26790,-687,49836,42042,2329.416,1207.732,2333.952,5223,17800,59,7.233677
-5976,408,31831,-636,48411,39609,2328.9,1207.749,2332.852,5185,17972,110,1208.849
-6020,496,34312,-647,32936,38729,13.45361,15.91065,2333.454,5217,17796,112,1208.952
-6000,528,25078,-680,49324,33336,2328.866,1207.801,2333.66,5269,17920,34,1208.952
-5416,-1416,32151,720,47883,24293,2328.9,52.14777,2332.491,3743,18276,389,6.872852
-6116,-36,34232,-800,48379,24053,2329.364,49.69072,2332.732,5227,17820,27,5.962199
-6100,-196,35064,-655,48411,24005,2329.106,1207.629,2333.66,5230,17820,222,1208.832
-6096,-108,35048,-675,48411,25510,2328.78,1207.612,2333.625,5254,17788,112,1208.952
-6012,-176,33032,-660,48699,24950,2329.192,1207.68,2333.385,5187,17788,-33,1208.935
-5952,-192,33768,-690,48699,25830,2329.055,1207.835,2333.986,5262,18024,115,1208.9
-6012,-40,33528,-657,48987,26662,2329.467,1207.818,2334.244,5233,17880,152,1209.038
-6004,-28,33000,-704,48731,26678,2329.364,1207.783,2334.364,5241,17800,153,11.03093
-5892,-40,26806,-598,40553,46859,2329.691,1207.835,2334.57,5532,17956,-25,1208.935
-5220,-200,31927,250,44186,40041,2329.295,1207.663,2334.295,4651,17808,-360,1208.969
-6008,352,29799,-1041,44874,42010,2329.742,187.3883,178.4192,5372,17720,193,1208.866
-5912,424,28326,-313,43226,41786,2329.639,188.1787,177.1134,5188,17876,3,1208.935
-5896,224,23493,-719,37049,45403,2329.33,188.0069,175.3952,5254,17864,120,12.07904
-5548,704,35432,-2232,46107,36985,2330.979,13.3677,2334.88,5627,17560,315,7.474226
-6040,720,23029,-2014,36536,41338,177.8866,1207.732,2335.429,7369,18164,-365,5.549828
-6332,624,0,385,29479,41498,2330.309,192.5773,176.2715,6118,18076,297,6.975945
-5832,896,0,-791,32487,44554,2331.392,192.6804,176.2199,5595,18064,-65,1208.866
-5816,1388,0,-598,29687,47291,120.7045,191.1168,177.5601,5305,17812,87,7.474226
-5944,1388,0,-601,30983,47387,132.2852,193.9863,176.3402,5241,17928,137,7.886598
-5820,1304,0,-695,31271,47355,125.6014,191.134,176.4089,5226,17848,106,7.886598
-5872,1420,0,-684,31831,47371,129.244,1207.801,177.6804,5246,17820,97,7.457045
-5884,1344,0,-675,31959,47163,122.7148,190.6186,176.8041,5218,17816,124,6.151203
-5836,1344,0,-692,32311,46939,2329.966,190.9966,176.3402,5233,17776,67,5.24055
-5840,1476,2096,-693,33528,46779,2328.952,191.701,176.2887,5256,17812,65,5.24055
-5844,1376,33576,-655,37529,45819,2328.608,1207.801,2334.639,5290,17744,118,1208.935
-5944,344,36008,-811,48603,42170,2328.883,1207.766,2334.313,5094,17640,327,6.993127
-5600,684,22597,-2823,48907,42586,2329.106,1207.749,2335.653,4812,17416,79,7.164948
-5868,516,23349,-655,49564,43866,2328.9,1207.852,2334.467,5189,17888,22,7.525773
-5716,436,32215,-706,49932,43786,172.9725,1207.749,2334.278,5325,17944,258,6.340206
-5828,508,37465,-677,48395,43290,2329.055,1207.646,2335.155,5184,17960,37,7.628866
-5828,456,28262,-671,50252,45050,2328.814,1207.852,2334.691,5191,17876,41,5.618556
-5824,480,23989,-681,50604,45627,2329.089,1207.852,2334.948,5221,17976,38,5.790378
-5776,484,25622,-669,50956,45067,173.4192,1207.801,180.3265,5224,17908,121,6.168385
-5896,412,26630,-680,50460,45034,174.3127,1207.904,2334.313,5243,17992,135,5.687285
-5856,468,27158,-674,51980,45099,175.1546,1207.749,2334.021,5225,17872,100,5.257732
-5776,448,26294,-652,51052,45050,172.0962,1207.835,2334.742,5227,17944,133,5.72165
-5852,408,23141,-714,51004,44762,173.3677,1207.68,2334.33,5255,17864,88,6.271478
-5820,312,21621,-256,50780,44810,2328.729,1207.801,2334.295,5106,17892,25,5.790378
-5824,520,26278,-656,50956,45499,2328.797,1207.869,2334.863,5200,17752,166,4.845361
-5940,428,26518,-659,51212,45483,2328.608,1207.904,2334.725,5257,17860,119,5.32646
-5816,416,26598,-697,51308,45547,2329.021,1207.783,2334.519,5241,17996,133,5.790378
-5920,476,24085,-684,51212,45691,2328.952,1207.835,2335.429,5234,17844,145,7.594501
-5664,524,19956,-670,50460,45739,2329.381,1207.801,2335.052,5257,17988,110,1209.072
-5852,520,23205,-686,51484,45867,2328.9,1207.783,2335.052,5244,18000,105,7.57732
-5888,472,18804,-691,51452,46059,2328.866,1207.818,2335.55,5246,17836,118,1208.986
-5740,368,11218,-655,51468,45931,2328.729,1207.904,2334.828,5258,17992,144,1208.969
-5804,400,9650,-652,51500,46059,2329.072,1207.921,2334.811,5248,17860,93,1209.055
-5820,484,9474,-661,51676,46027,2329.175,1207.973,2335.533,5226,17876,94,1209.055
-5704,404,9042,-670,51452,46315,2329.003,1208.024,2335.412,5259,17864,92,1209.124
-5724,452,7169,-664,51468,46171,2328.917,1208.024,2334.794,5221,18044,112,1208.986
-5896,372,7585,-659,51628,46139,2329.244,1208.058,2335.292,5249,17956,127,1209.021
-5808,384,0,-693,51468,46283,2328.54,1207.887,2334.794,5225,17812,81,1208.9
-5736,300,13651,-679,51740,43786,2328.643,1208.007,2334.347,5237,17980,91,1208.952
-5808,432,18804,-666,52124,43082,172.7148,1208.058,2334.742,5229,17924,131,1208.935
-5776,420,18548,-691,51820,43274,172.6804,1207.869,2333.952,5241,17968,141,1208.986
-5812,472,17204,-682,51836,43610,172.6976,1207.921,2334.124,5232,17924,96,1208.883
-5704,404,18244,-688,51820,43802,172.2509,1207.869,2335.498,5250,17928,85,1209.021
-5932,408,18964,-650,51980,43642,174.3986,1207.904,2334.485,5255,17920,108,1209.072
-5760,476,18484,-680,51980,43786,171.8213,1207.955,2334.278,5259,17976,121,1209.296
-5820,412,18212,-676,51980,43578,173.5223,1208.041,2335.103,5266,17792,110,1209.278
-5720,464,18180,-663,51980,43610,2328.643,1207.818,2334.038,5245,17920,94,1209.227
-5748,428,3216,-665,52092,43114,2328.677,1208.058,2334.124,5262,17840,114,1209.141
-5900,412,15619,-686,51964,42986,172.268,1207.904,2335.464,5253,17880,94,1209.055
-5884,320,24549,-687,51484,43162,173.0584,1207.818,2334.175,5205,17912,56,14.55326
-5912,332,29959,-484,50604,43018,2328.608,1208.024,2333.505,5252,17928,323,1209.055
-5900,352,24325,-622,51708,45739,2327.818,1207.973,2334.347,5150,17824,-52,1208.883
-5888,280,5377,-659,50972,46587,2327.646,1208.076,2333.78,5312,18052,140,1209.038
-5856,156,18260,-665,50444,46635,2328.247,1208.041,2334.038,5239,17848,89,1208.986
-5800,336,38825,-79,34344,39689,2328.144,1208.058,2334.021,4586,17728,-25,1209.089
-6268,68,31735,715,41514,31879,2328.179,1207.783,2334.021,4709,17700,44,1209.089
-5940,188,31543,-652,41258,30599,2327.938,1207.904,2333.935,5203,17736,78,1208.935
-6016,176,29719,-684,42682,32135,2327.44,1208.024,2334.33,5243,17888,84,1209.003
-6128,136,30871,-674,43354,32631,2327.165,1207.869,2333.917,5215,17880,70,1209.021
-6060,52,32567,-56,45147,29031,2327.268,188.6426,177.5258,5034,17864,114,1209.141
-6060,184,32311,-592,47867,31447,2326.632,187.7491,177.9897,5201,17836,119,1209.158
-5996,152,32103,-679,47131,32567,2327.01,187.3024,176.3058,5228,17940,95,1209.141
-5948,284,32471,-694,47131,33128,2327.079,188.11,175.8763,5236,17724,107,1209.192
-5900,236,32551,-692,46907,33176,2327.182,187.7491,177.6117,5246,17860,97,1208.952
-5900,240,33016,-628,46715,32007,2327.217,189.8454,177.5773,5262,17612,126,1208.917
-6044,268,30999,-652,46971,32952,2327.182,187.3024,176.2887,5243,17936,124,1209.003
-6016,276,31863,-689,47515,33304,2326.89,188.5911,177.6117,5242,17832,181,1208.917
-5984,140,31751,-671,46891,33576,2327.01,188.1787,177.9897,5223,17936,39,1209.055
-6068,244,31463,-661,47115,33176,2326.856,188.5567,175.4296,5252,17824,129,1208.986
-5932,312,31751,-663,47131,32711,2326.563,188.5395,177.646,5213,17896,98,1209.192
-5952,208,32503,-697,49676,35880,2326.752,1207.99,2334.433,5232,18036,75,1209.158
-6016,308,33576,-615,43146,35080,172.1306,188.7629,2333.883,5274,17972,137,1208.969
-5948,216,29047,-673,48251,38249,172.1478,188.4364,177.543,5215,17856,108,1208.969
-6004,192,34200,-583,46651,32519,171.7869,189.244,2333.608,5220,17772,174,6.099656
-6020,456,34312,1171,41082,33400,2326.924,187.0619,175.756,4543,17740,79,7.474226
-5836,276,35528,-689,35896,34824,2326.443,190.4467,177.0275,5278,18036,78,1209.124
-5944,356,35352,-691,34904,30087,2326.649,187.1306,175.0172,5283,17816,114,1209.347
-5920,244,38313,-653,30823,35912,2326.735,186.8728,176.2543,5219,17812,102,4.707904
-6084,132,25638,-1529,39225,33496,2326.357,1207.99,174.6048,5541,18032,205,1209.158
-5928,360,24437,-668,38425,33432,2326.271,187.457,175.8591,5270,17888,123,1209.141
-6048,300,25286,-621,38153,34344,2326.529,188.7457,174.1924,5256,17912,150,1209.33
-6036,228,26742,-675,37897,34056,2326.031,189.622,174.6048,5254,18004,82,1209.192
-5932,312,25078,-674,37129,34296,2326.237,187.9381,174.5876,5245,17824,105,17.90378
-6056,364,25782,-683,37177,34456,2326.357,187.543,173.6942,5251,17936,102,20.4811
-5920,360,25430,-670,37049,34392,2326.375,186.6495,175.0344,5217,17800,103,14.17526
-5836,440,26278,-678,37625,34232,2326.237,189.6564,174.1753,5236,17868,122,14.60481
-5908,296,26150,-686,37385,34216,2326.237,186.6667,174.6392,5242,17860,100,1209.227
-5932,300,26662,-674,37785,34360,2326.203,188.4021,174.6048,5256,17820,79,13.76289
-5900,356,26710,-664,37881,31543,130.2234,187.9725,173.6942,5247,17832,129,9.226804
-5968,348,31255,-662,46251,36088,2326.598,1207.921,2333.282,5247,17872,76,4.415808
-5760,296,38793,-640,46507,29079,13.65979,1207.99,2333.505,5209,17916,133,1209.158
-6928,1188,42810,3043,21013,23701,13.04124,14.05498,2333.093,4203,17720,245,1208.986
-6148,724,38937,-785,24565,19236,2326.46,1207.938,2332.68,5383,17804,374,1209.227
-6076,356,36120,-1875,23221,24341,2326.203,190.1031,176.7526,5727,17840,62,4.656357
-6000,592,31351,-436,23861,23813,2325.911,188.1615,175.2062,5145,17884,106,1209.038
-5976,464,33320,-639,24325,25382,2325.876,188.4364,175.1546,5228,17888,161,6.563574
-6024,520,31223,-697,23893,24790,2325.481,187.6976,175.189,5248,17876,153,4.75945
-5960,508,34856,-658,31447,25206,2325.773,188.6598,174.811,5189,17880,55,4.75945
-6068,448,34936,-660,30919,25606,2325.636,188.2302,176.1856,5226,17996,87,5.171821
-5952,484,32567,-711,24085,25830,2325.687,187.3711,175.3436,5303,17856,200,4.656357
-6072,480,34680,-674,24469,26902,2326.254,189.9141,175.2577,5266,17780,90,4.656357
-5960,572,32615,-661,24005,25686,2326.649,188.2131,176.5807,5237,17788,80,4.639175
-6008,456,33832,-688,24309,26198,2325.773,188.677,177.4227,5240,17584,151,5.017182
-6052,464,34616,-669,23845,26230,2325.24,187.8522,174.9141,5262,17960,238,5.017182
-6048,460,34136,-685,24437,26038,2325.67,187.8351,175.3608,5208,17868,94,4.656357
-6100,480,35720,-639,24565,26598,2326.168,187.3883,175.3952,5263,17708,162,4.587629
-5944,404,35960,-685,24341,26838,2325.653,189.6048,175.0172,5241,17788,78,5.068728
-6008,460,36392,-722,23461,27126,2326.014,1208.041,175.4296,5266,17908,39,5.017182
-5996,592,36008,-664,24181,27398,2324.845,188.7285,176.3574,5241,17912,83,5.068728
-6040,440,34872,-658,24069,26102,2324.794,187.5258,175.4811,5227,17792,90,4.587629
-6128,340,37337,-682,24085,26374,2325.0,189.2096,175.4467,5250,18056,180,4.604811
-6228,308,36985,-460,24565,27302,2324.966,187.4914,177.1821,5424,17928,117,5.017182
-6072,456,36360,-700,22709,24405,2324.708,188.7629,176.8385,5245,17832,95,4.347079
-6124,416,37801,-685,23557,25046,2324.708,187.4742,174.9656,5247,17820,150,4.776632
-5988,464,37113,-660,25142,27110,2324.863,188.3677,176.323,5284,17804,104,4.845361
-6044,500,36104,-658,28326,31847,2324.966,192.0447,2333.007,5245,17788,77,5.0
-5892,616,37609,-577,28470,32327,2324.674,187.268,2332.783,5329,17920,133,4.656357
-5960,520,38745,-585,27222,33032,2324.124,187.7491,177.7663,5076,17860,140,4.639175
-5968,452,36328,-726,25206,23765,2324.433,187.7663,175.6186,5289,17808,71,4.604811
-5968,504,38665,-671,25846,24710,2323.643,1208.058,176.0137,5243,17900,77,5.017182
-6076,540,39177,-687,25942,24790,2324.416,188.11,175.567,5258,17852,89,4.587629
-5992,532,38329,-672,35352,23445,2325.034,1208.127,2332.354,5222,17764,153,5.292096
-4996,432,12291,288,49324,45163,2325.069,1208.179,2332.921,4043,18140,227,1209.038
-5804,404,9186,-626,48923,45851,2323.986,1208.247,2333.454,5295,17972,174,1208.9
-5852,568,14419,-605,48907,43546,2323.66,1208.11,2332.543,5190,17996,83,1209.089
-5376,472,13843,-665,49468,45595,2324.45,1208.076,2333.196,5250,17956,128,5.309278
-5532,-96,41226,-912,32487,22757,2324.45,1208.213,2333.591,5015,18340,710,5.429553
-5896,448,35528,-180,33224,28502,2323.832,1208.093,2333.161,5083,17816,7,5.068728
-6028,360,37737,-676,33400,30039,2323.746,1208.11,2333.007,5245,17772,100,4.75945
-6044,400,34984,-708,34840,31351,2323.849,1208.076,2333.058,5238,17860,68,6.151203
-5972,336,35592,-664,38361,33560,2323.368,1207.99,2332.56,5220,17856,79,5.790378
-6116,492,37737,-682,37209,32631,2324.124,12.31959,2332.972,5268,17844,190,1209.381
-6056,544,48347,-729,23157,22533,2323.196,1208.076,2333.213,5244,17612,165,1209.313
-6276,492,49324,-635,16724,18004,2323.402,1208.144,2332.715,5278,17652,139,1209.055
-6400,432,49532,-654,19572,20581,2322.749,1207.955,2332.886,5228,17708,156,1209.433
-6604,436,49628,-681,20933,20997,2322.835,1208.093,2333.832,5247,17720,62,1209.175
-6128,372,21781,-881,41978,35048,2323.54,188.1959,2332.921,5353,17712,-173,6.512027
-5968,304,26326,-656,42346,37209,2324.003,190.6014,2332.852,5261,17836,28,1209.107
-6056,424,29207,-693,41962,33160,2324.124,1208.144,2333.282,5260,17844,133,18.0756
-6044,376,29751,-687,40553,33464,2323.849,1208.076,2332.629,5266,17812,99,15.54983
-6108,528,34200,-687,43226,33544,2324.295,1208.161,2332.423,5294,17856,188,14.67354
-6164,476,34248,-524,39929,34312,2323.763,1208.213,2333.007,5076,17756,69,15.03436
-6064,376,22085,-508,39417,36344,2323.883,189.6735,176.1512,5151,17700,168,1209.021
-5996,416,25270,-661,35160,31495,2323.454,188.0069,176.1684,5212,17864,85,1209.141
-6000,320,16660,-688,32872,31719,2322.732,187.0103,175.945,5294,17884,122,6.701031
-5928,352,25158,-663,32663,32295,2322.612,188.3677,175.6873,5221,17860,64,6.443299
-6012,380,23221,-678,34024,32711,2323.711,188.4021,176.512,5238,17924,130,6.872852
-6060,460,14003,-713,34840,35032,2323.677,188.2818,2333.849,5253,17788,73,6.701031
-6044,264,27862,-580,43130,33256,2324.175,1208.179,2333.247,5229,17912,155,6.701031
-6024,496,25350,-688,41210,35032,2324.691,1208.127,2332.543,5269,18040,27,6.512027
-5900,412,30455,-652,40713,34392,2323.917,1207.973,2333.78,5208,17980,63,6.460481
-5964,504,23333,-667,40441,34424,2324.072,1208.127,2332.904,5209,17844,37,6.460481
-6096,464,29879,-662,42026,35592,2323.007,1208.093,2332.612,5217,17916,68,1209.296
-6044,552,33560,-672,33704,32439,2324.416,1208.076,2333.729,5279,17876,178,1209.313
-5932,460,33064,-740,33944,33256,23.24742,1208.058,2332.852,5242,17676,-1,13.90034
-6000,448,31031,-660,32888,34056,2323.505,1208.041,2332.285,5223,17740,106,14.55326
-6088,440,31735,-681,34600,34424,2323.368,1208.093,2333.265,5233,18044,101,1209.055
-5904,464,25686,-673,37401,35480,2324.192,1208.213,2332.904,5192,17948,58,1209.141
-6016,452,27478,-650,37337,35592,2323.883,1208.11,2332.509,5241,17816,66,10.05155
-5948,496,30839,-689,37353,35752,2324.141,1208.093,2333.024,5225,17700,97,1209.003
-5928,436,29959,-682,37753,36168,2323.54,1208.093,2333.213,5230,17972,90,6.821306
-5976,320,26294,-690,40201,37353,2323.574,1207.921,2332.44,5234,17924,128,1209.21
-5900,456,42762,-409,26198,24005,2322.612,1208.179,2333.11,5077,17680,165,1209.278
-6760,516,45163,-630,25590,25942,2322.749,1208.11,2332.285,5108,17548,-345,1209.055
-6672,480,46091,-713,23557,24101,2322.921,1208.144,2332.509,5215,17420,-101,1209.038
-6672,488,47371,-704,25446,25206,2322.302,1208.076,2332.938,5300,17496,231,1209.089
-6432,448,48907,-709,22453,22037,2322.99,1208.23,2333.024,5236,17672,-2,1209.141
-6448,384,49147,-688,21525,22309,2322.972,1208.213,2332.886,5223,17724,128,1209.072
-6400,492,49404,-663,23013,23653,2322.955,5.601375,4.948453,5249,17540,106,1209.038
-6412,484,41786,-694,21781,24998,2323.144,1208.093,2332.113,5257,17792,104,1208.883
-6124,364,24565,-787,41226,31191,2322.852,1208.144,2332.217,5271,17740,-182,13.83161
-6016,492,27238,-664,42474,32359,2320.945,188.7113,179.0034,5243,17868,120,8.556701
-6400,304,20196,-679,31319,33336,2323.454,188.488,174.811,5303,17688,-65,7.233677
-6036,412,21413,-646,37545,34024,2323.076,189.8797,177.0275,5236,17968,141,6.752577
-5592,496,23925,-716,44218,40793,2322.732,1208.093,2333.247,5259,17884,-153,7.164948
-5548,164,0,-182,49948,41514,2322.491,1208.076,2332.955,5567,17664,-615,6.993127
-5780,432,0,-758,49308,43770,2324.055,1208.093,2333.23,5197,17928,42,8.316151
-5868,392,24021,-674,48251,44090,2322.835,1208.076,2333.144,5259,17924,158,9.896907
-5916,400,27382,-629,48603,43946,2322.646,1208.11,2332.646,5197,17832,98,10.2921
-5836,476,28422,-733,48507,44394,2323.213,1208.213,2333.265,5249,17956,-7,7.766323
-5940,396,26598,-794,49580,44394,2323.093,1208.024,2333.11,5387,17992,149,7.371134
-5792,428,26150,-708,49356,44522,2322.904,1208.076,2332.698,5247,17768,76,1209.175
-6040,580,25142,-2662,45243,42506,2321.959,187.5258,173.8144,5754,18164,31,1208.849
-6504,-872,25126,7290,51308,7153,2321.151,1208.11,2333.402,3172,18620,840,86.95876
-5764,384,0,69,54205,3424,2321.615,1208.11,2332.491,4859,18128,324,7.66323
-5444,528,17396,-5635,49884,37113,2322.886,1208.024,2333.058,6970,17860,171,7.18213
-5648,496,27798,-712,46251,41226,2322.938,1208.127,2332.474,5166,17828,66,8.659794
-5816,-504,28935,-723,49516,40201,2322.715,1208.161,2332.251,5331,17832,127,1209.158
-6016,-248,33768,-683,46763,40633,2323.333,1208.076,2333.161,5230,17620,106,1209.124
-5912,-276,21253,-892,48379,44346,2322.715,1208.093,2332.783,5294,17920,21,8.38488
-5960,-300,30151,-724,49067,42426,2322.457,1208.196,2332.371,5267,17900,159,9.278351
-6124,-352,24373,-622,49948,44602,2322.852,1208.058,2332.027,5220,17904,57,1209.107
-5872,-456,26342,-679,49308,45403,2322.406,1208.093,2332.457,5239,17828,148,1209.33
-5884,-336,33448,-667,48859,43882,2322.423,1208.11,2332.182,5246,17808,146,1209.175
-6072,-264,33752,-668,49532,43530,2322.715,1208.076,2331.512,5246,17876,83,1209.107
-6036,-392,33752,-648,49404,43306,2322.131,1208.127,2332.302,5232,17764,112,8.316151
-5928,-308,34728,-714,48891,43258,2323.436,1208.11,2331.924,5251,17848,62,7.113402
-6032,-392,34632,-679,48651,43082,2323.574,1208.213,2331.735,5273,17764,153,7.955327
-6004,-252,34552,-634,48907,43610,2320.808,1208.058,2332.251,5218,17788,123,7.525773
-5968,-340,33800,-672,49115,43226,2321.46,1208.041,2330.636,5223,17740,136,7.938144
-5868,-284,33800,-685,48939,43562,2322.474,1208.144,2331.718,5251,17812,86,7.525773
-5988,-340,34712,-686,48923,43498,2322.268,1208.041,2332.474,5220,17892,121,7.938144
-5964,-288,30711,-678,49500,43706,2322.165,1208.041,2332.096,5236,17856,101,1209.261
-6092,-256,30199,-713,49596,42618,2322.44,1208.179,2332.337,5252,17920,148,1209.296
-6068,-144,26470,-370,50188,40921,2322.406,1208.11,2333.265,5586,18532,352,1209.192
-5944,152,33784,-256,49131,40489,2322.234,1208.11,2332.68,5145,17924,179,1209.227
-5768,28,17204,-686,37097,47371,2322.715,1208.144,2332.698,5232,17992,85,6.632302
-6300,348,31223,4676,37593,34200,2322.302,186.3746,176.9072,3046,17880,101,9.209621
-6048,200,27382,-295,27478,29111,2322.886,192.4227,174.8625,5260,17796,263,8.556701
-5992,284,27974,-664,28422,28566,2322.079,187.3196,173.9175,5243,17760,104,12.68041
-5964,388,28534,-676,29223,29863,2320.911,187.3196,174.7938,5224,17840,101,10.25773
-6028,344,29143,-691,29751,30647,2321.186,186.9244,173.9003,5239,17784,93,8.14433
-5984,236,27926,-713,29591,31095,2321.89,187.7663,175.6186,5234,18052,89,8.969072
-5996,400,26886,-687,28582,30567,2322.749,189.1065,174.7766,5230,17936,90,8.969072
-6096,340,28967,-683,29479,30983,2322.268,1208.076,174.7251,5239,18000,119,8.986254
-6060,360,29607,-691,30519,31255,2322.388,189.9828,174.2784,5237,17916,81,14.48454
-6004,304,23157,-667,31815,32888,2322.045,188.11,174.1753,5266,17840,100,8.006873
-5980,296,22741,-657,32087,33048,2322.01,187.646,175.4639,5259,17984,80,8.47079
-6056,356,25190,-680,32711,33784,2322.182,188.0756,174.0893,5240,17980,83,8.058419
-5948,340,24950,-672,32263,33256,2321.959,187.646,175.3436,5212,17852,84,8.058419
-5972,208,25254,-670,33032,33496,2321.993,188.9691,173.677,5271,17828,121,8.058419
-5984,332,27030,-635,32615,33448,2322.165,1208.093,173.6942,5239,17872,157,8.522337
-5956,292,26374,-682,32952,33688,2319.639,188.5739,173.7629,5257,18032,130,8.487972
-5980,336,25350,-696,33048,33800,2319.674,187.6632,173.7457,5258,17808,95,8.556701
-6016,292,25606,-673,33736,33976,2323.849,188.5223,173.7285,5254,17788,121,8.556701
-5948,276,24998,-687,33832,33640,2322.285,1208.144,174.1924,5241,17792,111,9.450171
-5960,380,20420,-654,34104,33496,2321.735,1208.333,173.7285,5239,17924,59,8.608248
-5996,220,18404,-658,34280,32519,2321.752,188.4708,173.2818,5227,17964,59,9.089347
-6048,312,2768,-671,45867,40537,2321.718,188.8488,2332.371,5245,17844,98,9.158075
-6040,304,36200,-754,37033,34616,2321.821,1208.127,2332.423,5218,17776,402,1209.141
-5964,376,37145,-615,38713,36056,2322.199,1208.196,2332.44,5240,17824,64,1209.124
-5896,316,36616,-646,39929,36120,2321.752,1208.179,2332.612,5254,17740,136,1209.21
-6072,392,35544,-747,40921,37417,2321.684,1208.093,2332.113,5212,17804,106,1209.347
-5960,452,37321,-755,39225,37465,2322.045,1208.161,2331.598,5182,18136,172,1209.072
-5940,312,37593,-705,39705,37673,2321.873,1208.058,2332.594,5235,17860,88,1209.021
-5976,312,35080,-650,40009,37801,2321.77,1208.282,2332.268,5220,17932,66,1208.969
-5920,324,22789,-698,42202,40745,2321.752,188.0069,174.5189,5236,17884,87,7.886598
-5852,504,5969,-1076,33800,36953,2321.752,190.189,175.0859,5277,18052,232,7.886598
-5892,324,6401,-667,33544,37033,2321.838,1208.213,174.6564,5222,17820,95,8.333333
-5928,364,17268,-683,35992,34904,2322.027,188.1272,174.6735,5228,17876,118,8.058419
-6044,352,16932,-713,40425,37865,2321.752,188.5395,175.0687,5218,17832,137,7.835052
-5920,340,31447,-667,42090,38697,2321.701,1208.179,2332.217,5219,17840,51,8.969072
-6016,416,35848,-657,35192,36760,21.80412,1208.419,2332.251,5215,17804,80,1209.089
-5856,296,37657,-536,39801,36873,2322.131,1208.265,2332.457,5150,17952,-59,1209.038
-5948,244,29271,-676,40249,38377,2321.632,1208.179,2331.959,5229,17800,77,9.020618
-5960,408,32247,-648,32439,38921,21.90722,1208.299,2331.289,5253,17896,180,8.659794
-6088,336,32503,-659,32135,39337,2322.474,1208.127,2332.251,5208,17904,152,8.659794
-6080,352,31079,-666,32343,39545,2322.251,1208.161,2331.89,5265,17956,97,9.570447
-5980,340,31495,-670,38841,39689,2321.495,1208.11,2331.993,5250,17852,117,8.659794
-5828,324,33560,-685,39049,39273,2322.234,1208.299,2332.543,5280,17868,108,9.020618
-6008,348,32311,-667,40153,39545,2322.113,1208.213,2332.251,5236,17776,90,9.948454
-5888,308,34824,-674,41226,39433,2322.388,1208.196,2332.423,5247,17948,116,11.18557
-6064,380,34520,-636,41722,40025,2321.959,1207.99,2332.01,5237,17968,165,8.659794
-5944,260,35608,-647,41898,40057,2321.563,1208.076,2331.993,5242,17784,124,8.608248
-6124,436,28390,-609,42074,38505,2322.268,1208.093,2331.821,5257,17820,103,8.453609
-5948,392,28470,-31,46971,38841,2322.01,1208.196,2332.268,5090,17828,-7,8.814433
-5864,352,27190,-654,47275,39209,2321.735,1208.213,180.4467,5253,17748,85,9.450171
-5900,232,21765,-633,47883,40153,2321.873,1208.093,2332.32,5263,17852,103,10.7732
-5640,160,25606,-379,47419,43290,2321.581,1208.179,2332.594,5311,17992,-147,9.020618
-5896,456,25030,-681,39401,40713,20.01718,1208.265,2331.581,5304,17932,80,8.367698
-5992,376,27286,-661,39689,40425,19.86254,1208.007,2332.337,5234,17868,115,9.278351
-5872,284,27798,-681,41962,40873,19.811,1208.179,2331.752,5220,17940,107,8.367698
-5868,368,28518,-678,42042,41482,20.80756,1208.179,2331.46,5243,17900,103,9.329897
-5928,420,28711,-667,43786,41738,18.05842,19.3299,2332.302,5256,17908,103,8.006873
-5936,316,20436,-666,47227,42218,18.93471,21.37457,2331.804,5260,17888,113,13.47079
-6188,-196,17172,163,48555,40825,2322.131,188.3161,176.2027,5224,17860,93,1209.055
-5892,276,20789,-735,44074,37881,2321.667,188.866,174.3986,5253,17792,-2,11.4433
-5880,412,21605,-700,42490,37705,2322.148,189.7079,174.0378,5226,17864,87,10.4811
-5876,372,20533,-701,41786,37993,2322.268,187.5086,173.5223,5249,17888,138,8.47079
-6000,420,22325,-688,41418,39145,2322.268,1208.265,173.9519,5256,17968,113,10.58419
-5868,236,21957,-660,41738,39689,2322.079,1208.127,173.9519,5254,17952,74,15.56701
-5880,340,22501,-678,41994,39225,2322.457,187.5773,173.4708,5257,17816,105,8.917525
-5948,328,23541,-700,41946,39721,2322.251,189.7079,173.0756,5250,17908,94,11.42612
-5932,448,24533,-685,42026,39689,2321.409,188.866,173.5395,5284,17864,79,9.381443
-5680,732,19716,-855,44714,43562,2321.151,188.6426,173.8488,5269,17756,-33,19.27835
-5812,292,21029,-612,43178,39593,2320.945,1208.179,172.9553,5220,17964,129,9.793815
-5908,412,21973,-676,44042,39689,2320.911,183.3161,173.4192,5265,17956,110,10.22337
-6080,420,23653,-690,44122,40105,2320.825,182.4399,174.7251,5223,17940,141,9.810996
-5912,360,23253,-665,43738,40553,2320.584,183.3333,173.4364,5214,17892,99,10.22337
-5840,340,23765,-672,43386,40745,2321.203,187.0619,175.1031,5241,17788,108,9.398625
-5876,352,23029,-671,46699,44890,2321.031,188.9519,173.5395,5247,17768,97,8.38488
-5656,364,4513,-774,46571,42602,2320.808,1208.35,2331.323,5225,17840,-82,11.01375
-5324,112,0,-357,49676,46379,2320.79,1208.23,2332.062,5022,17976,73,10.12027
-5708,308,0,-667,50524,46235,2320.808,1208.213,2330.997,5212,18084,76,9.690722
-5740,384,0,-673,50156,45899,2320.79,1208.23,2331.083,5236,17816,85,1209.124
-6056,428,0,-1146,49628,46171,2321.083,1208.11,2331.804,4320,17980,192,1209.158
-6068,-260,13523,-623,48427,40617,2321.134,1208.282,2331.46,5179,17840,142,12.86942
-5912,68,19460,-645,47323,45291,2321.306,1208.247,2331.701,5328,17960,101,13.83161
-6096,4,6097,-468,49003,43386,2321.014,1208.265,2332.148,5120,17712,95,8.487972
-5832,28,6449,49,47915,44714,2320.825,1208.23,2331.787,4462,17892,194,9.553265
-5784,-448,416,-584,47739,46171,2320.911,1208.041,2331.546,5508,17908,88,1209.141
-6024,-132,7745,-695,48059,46347,2321.1,1208.23,2332.337,5295,17988,125,13.40206
-5816,60,16788,-502,47883,46459,2321.289,1208.161,2331.89,5433,18072,84,8.608248
-5896,152,9170,-672,48811,45323,2321.289,1208.127,2331.907,5224,17944,155,9.5189
-5840,-44,17172,-693,48571,45499,18.88316,1208.23,2332.44,5276,17980,125,9.106529
-5760,108,6481,-506,48587,45371,2321.254,1208.196,2331.667,5249,17900,85,10.0
-5760,168,16756,-615,47291,45595,2320.894,1208.23,2332.01,5364,18024,112,10.41237
-5640,236,18228,-602,47835,45435,2321.598,1208.196,2332.302,5336,17988,74,9.570447
-5792,408,7537,-685,49099,45915,2320.344,1208.282,2331.701,5246,17944,91,10.91065
-5752,212,15651,-686,49115,45755,2320.618,1208.179,2331.392,5217,18040,123,9.587628
-5776,232,18868,-695,49147,44650,2320.79,1208.093,2332.027,5228,17960,91,8.195876
-5832,248,25558,-671,47979,43434,2320.67,1208.196,2331.357,5254,17800,180,8.539518
-5704,152,22277,-389,48699,44154,2321.546,1208.213,2332.32,5291,17964,9,8.556701
-5928,252,24694,-699,48475,44042,2320.533,1208.11,2331.735,5208,18000,154,7.731959
-5876,284,24053,-756,48667,44586,2320.636,1208.196,2331.151,5249,17972,101,8.14433
-5836,144,24838,-727,46395,44218,19.55326,17.54296,2331.46,5190,17932,194,8.625429
-5304,156,25926,-565,49324,37641,2321.443,1208.299,2331.942,5649,18136,186,1209.863
-6136,472,37033,-2653,11266,27798,2321.031,1208.179,2331.323,5617,17984,672,1209.759
-6212,176,32439,-3102,33512,38153,2321.254,1208.196,2331.237,6195,17604,237,1209.141
-5488,496,35816,-350,37129,32519,2320.825,1208.076,2331.632,5160,17816,-2,9.329897
-5816,440,31495,-638,39705,36312,2321.048,188.5223,2331.529,5207,17880,72,13.88316
-5960,480,32375,-611,37993,37129,2321.134,1208.316,2331.151,5169,17880,18,13.83161
-5672,564,29239,-756,43018,39465,2321.306,20.22337,2330.945,5205,17820,159,21.94158
-5860,412,31239,-830,40025,36440,2320.979,1208.196,2331.203,5357,17972,-29,1209.845
-5664,596,29959,-98,42282,35688,2320.945,1208.23,172.7148,5078,17928,115,1209.742
-5808,344,16644,-875,44954,37593,2320.859,1208.179,172.4742,5327,18044,114,1209.296
-5768,660,22901,-807,42586,40457,2320.739,182.7319,172.6117,5256,18016,373,1209.261
-5872,480,18468,-532,42794,41834,2321.323,181.8385,170.8419,5291,17956,-25,1209.381
-5696,592,16355,-721,44794,42522,2320.911,181.5636,173.5567,5212,18028,170,1209.296
-5716,552,23557,-750,45147,41754,2321.117,179.8282,172.3539,5278,17868,62,1209.364
-5864,484,20468,-530,45099,40601,2320.859,180.7045,171.8557,5206,18044,218,1209.45
-5644,324,21893,-500,45787,38201,2320.945,179.433,171.89,5307,17956,51,1209.158
-5704,512,28727,-615,32936,35960,2320.704,1208.179,171.701,5371,17996,72,1209.278
-5780,548,25862,-798,32247,37849,2320.756,181.0825,172.079,5125,17964,55,1209.021
-5616,572,20837,-689,43066,42106,2320.756,182.3539,172.4055,5210,18148,85,1209.828
-5736,468,17956,-831,44970,39065,2320.464,179.5533,171.0825,5201,17796,25,1209.553
-5648,632,16644,454,44314,42602,2320.67,178.4021,174.8282,4787,17924,106,1209.192
-5688,560,0,-689,45755,42186,2321.237,177.8866,2331.186,5197,17788,100,1209.33
-5640,624,11410,-612,44906,43050,2322.938,179.1753,2331.907,5180,17872,113,1209.21
-5744,524,11362,-660,45083,42346,2320.309,177.9038,2331.065,5244,17920,116,1209.192
-5764,464,14611,-694,45339,42490,2320.069,178.3161,2331.237,5240,18116,26,1209.192
-5684,544,11586,-656,44794,41770,2320.189,177.8866,2331.168,5239,17828,86,1209.192
-5812,544,17876,-656,43274,41498,2320.309,178.3333,2331.031,5241,17772,50,1209.089
-5704,516,16115,-650,43994,41594,2320.103,178.8316,2331.632,5240,17952,98,1209.21
-5704,500,11938,-655,45307,42394,2320.189,177.9553,2330.189,5249,17840,87,1209.364
-5688,636,10018,-717,44810,42778,2320.429,179.6564,2331.34,5264,17896,102,1209.33
-5700,496,10866,-686,44890,42762,2320.601,177.5258,2331.34,5204,18016,142,1209.364
-5812,572,12226,-650,45163,42794,2320.722,178.3849,2330.876,5279,18000,104,1209.399
-5376,420,11826,-635,45131,42906,2320.756,177.8351,2330.928,5239,17964,106,1209.244
-5760,548,12547,-722,45131,42906,2320.515,178.3333,2331.443,5275,18040,83,1209.399
-5680,560,12819,-769,44554,42586,2320.429,181.4605,174.0378,5298,17996,51,1209.381
-5792,480,14083,-643,45083,42858,2320.756,181.0137,171.8385,5259,18004,126,1209.158
-5768,508,12899,-669,45131,42746,2320.24,179.7423,174.3986,5235,18116,124,1209.244
-5784,508,13475,-674,45147,42538,2320.464,181.4605,171.8385,5233,17856,73,1209.124
-5640,548,13603,-681,44858,42842,2320.756,179.3299,172.6976,5254,18056,72,1209.261
-5720,568,15283,-646,44842,42618,2320.309,178.4192,173.5223,5260,17920,106,1209.227
-5724,580,12114,-849,43258,41498,2320.429,178.866,172.2509,5185,18044,94,1209.192
-5760,628,0,-730,46443,37961,2320.0,180.9794,172.8694,5306,17844,38,14.3299
-5764,356,25702,-1546,28134,29031,2320.378,180.4467,173.7285,5761,18192,195,8.608248
-5824,520,10354,-516,28935,30583,2320.464,177.7491,172.1478,5551,17776,-287,8.797251
-5816,516,0,-634,30823,30951,2320.859,177.5773,170.5842,5306,18004,104,31.04811
-5788,472,0,-686,31319,30727,2320.704,177.646,171.134,5250,18140,156,8.659794
-5772,536,0,-709,32423,30039,2321.048,180.2234,172.457,5193,17828,150,8.178694
-5900,532,0,-681,35864,32183,2320.911,181.6839,171.7182,5249,17808,184,8.058419
-5864,700,0,-659,33544,34264,2320.653,177.6976,171.6151,5306,17900,105,34.2268
-5736,460,0,-652,33544,35080,2320.395,178.1443,171.1512,5251,18036,127,29.58763
-5832,528,0,-669,33560,35080,2320.533,178.1787,171.2199,5262,18104,150,29.19244
-5748,552,0,-655,31367,34552,2319.863,177.8866,173.0756,5292,17948,94,9.965635
-5664,784,0,-658,32279,35848,2320.12,178.6426,174.0206,5147,17996,86,8.591065
-5716,536,0,-814,33400,36536,2320.223,139.1924,2330.859,5159,17996,35,9.089347
-5708,476,0,-661,33784,36873,2318.917,136.3402,171.1168,5257,17952,109,9.089347
-5704,568,0,-692,34152,36344,2319.742,135.567,170.7216,5265,17808,118,10.41237
-5740,588,0,-693,34152,36136,2321.117,177.9897,2330.636,5231,18008,134,10.41237
-5760,544,0,-682,33912,35576,2319.897,177.9553,131.4089,5263,18012,100,10.41237
-5820,592,4433,-656,34344,36136,2320.206,177.9553,131.4433,5272,17928,103,9.948454
-5784,556,4913,-700,34136,35944,2320.498,136.4605,172.0103,5244,17932,112,9.5189
-5776,564,5153,-807,34056,36312,2319.931,179.7251,130.6014,5312,17936,93,9.5189
-5672,544,0,-627,34568,36312,2320.275,136.7526,2331.22,5223,18000,125,9.931272
-5752,592,13539,-664,31271,33656,2319.57,179.5017,172.2509,5212,18044,135,8.900344
-5712,708,26038,-2294,32007,32759,2319.416,179.1237,173.0584,5780,17836,204,9.570447
-5724,524,21541,-625,36280,32471,2320.275,178.9691,172.9381,5243,17868,145,19.2268
-5528,648,25174,-1145,39641,47771,2319.966,1208.23,2331.083,5457,17968,159,8.556701
-5432,692,0,-620,47419,44826,2320.309,178.9863,2331.701,5370,18128,93,10.54983
-5452,544,0,-1013,47931,44042,2319.845,177.1478,2330.945,5364,17840,-210,8.264605
-5508,508,0,-698,48171,44570,2320.24,178.8832,172.5945,5309,18048,119,8.659794
-5468,636,0,-674,48299,44810,2319.209,177.6117,128.677,5239,17952,102,9.243986
-5452,552,0,-626,48091,45899,2318.917,177.1306,130.189,5251,18040,77,9.209621
-5640,592,0,-666,47963,44634,2319.725,177.0962,175.5326,5229,17912,121,9.140893
-5484,568,0,-676,48347,45083,2319.536,177.1478,129.2268,5233,17960,81,9.140893
-5584,664,0,-673,48139,45099,2319.089,177.1134,173.8144,5355,17972,9,9.639175
-5616,600,0,-695,48139,45275,2319.845,177.5773,171.2543,5264,18172,102,11.35739
-5432,588,0,-673,47883,45595,2318.935,178.0756,2331.89,5267,18132,118,9.690722
-5608,616,0,-635,48107,45435,2319.45,177.1478,173.4536,5237,18096,134,1209.261
-5644,596,0,-719,48395,45579,2318.076,178.8488,172.5601,5279,18028,89,1209.381
-5496,624,0,-644,48235,45531,2319.089,176.6839,2331.289,5212,18108,103,1209.21
-5584,576,0,-718,47899,45435,2320.069,177.5773,2330.773,5241,18080,113,15.75601
-5608,628,0,-658,48043,45643,2319.381,177.1649,2330.808,5274,18144,104,14.93127
-5576,676,0,-695,48123,45595,2319.588,179.3127,2331.048,5286,17988,101,14.93127
-5532,608,0,-663,47899,45755,2319.622,177.5601,2331.048,5238,18220,98,16.64948
-5560,524,0,-696,47995,46043,2317.68,177.5601,2331.546,5255,17988,106,14.98282
-5532,604,0,-632,48123,45595,2320.911,178.0069,2331.203,5229,17980,42,14.98282
-5564,576,0,-665,48139,45867,2317.096,176.6839,2331.34,5254,17944,140,14.55326
-5584,696,0,-670,48027,45835,2316.976,177.5258,2330.928,5222,18084,107,16.28866
-5604,600,0,-685,47835,45611,2316.237,177.9553,2331.443,5264,17860,99,16.27148
-5512,588,0,-663,48283,45835,2314.502,177.0962,2331.1,5222,17948,89,15.44674
-5512,636,0,-707,47899,45627,2321.117,179.244,2330.894,5265,18044,115,17.19931
-5568,592,0,-661,47627,45739,2314.983,178.3505,171.6667,5234,18092,73,1209.296
-5440,636,0,-665,48139,41194,2312.749,177.079,124.7423,5253,18104,2,14.19244
-5488,696,0,-704,48235,43114,2316.237,177.4399,170.2749,5250,17988,147,1209.381
-5492,612,0,-682,48107,44042,2318.711,178.7801,171.6151,5252,18216,131,15.05155
-5524,620,0,-694,48139,44250,2316.89,177.921,171.9931,5209,17952,113,1209.433
-5552,644,0,-650,47835,44010,2316.186,177.5086,130.5498,5248,18080,122,1209.45
-5652,592,0,-678,47995,44314,2318.797,177.5258,126.701,5229,18028,115,1209.536
-5544,544,0,-693,47803,45691,2317.526,177.4914,169.8454,5273,18068,122,15.03436
-5588,668,0,-662,48315,45659,2315.361,177.0275,171.9759,5208,18084,141,1209.296
-5624,600,0,-542,49468,37785,2318.179,1208.144,173.2474,5405,18104,60,1209.433
-5472,480,13251,-457,37913,25718,2317.354,177.1478,172.5086,5120,18168,-41,9.965635
-5752,548,0,-542,31927,34168,2317.371,179.9313,171.7354,5587,17840,44,1209.536
-5672,676,0,-631,31991,33832,2317.079,178.1787,172.5945,5228,18084,93,1209.553
-5616,660,0,-677,32471,34088,2316.289,178.1959,172.1649,5238,18036,139,1209.433
-5616,628,0,-689,33176,34072,2315.12,178.1615,173.8488,5234,17952,133,1209.313
-5668,544,0,-698,33384,34136,2317.646,179.0378,131.3402,5252,17956,77,1209.313
-5672,692,0,-628,33512,34904,2314.467,178.5911,172.1478,5219,17980,103,1209.278
-5376,636,0,-647,33480,35080,2318.969,179.0722,133.8832,5242,17992,130,14.2268
-5604,760,0,-694,33720,35080,2317.268,177.7491,135.5498,5235,18096,110,1209.158
-5652,672,0,-651,33800,34968,2315.653,177.7663,134.0378,5212,18076,128,13.81443
-5604,716,0,-689,33384,35048,2316.667,177.7663,172.9897,5238,17928,110,13.35052
-5740,672,0,-671,33624,34584,2315.756,178.6082,130.4811,5192,17936,70,15.10309
-5696,636,0,-683,33128,34568,2317.045,179.8969,127.921,5222,17928,85,14.67354
-5636,604,0,-664,33368,34616,2315.773,178.5911,127.3883,5270,17988,115,14.67354
-5680,644,0,-664,33528,35128,2315.086,178.6254,128.1272,5237,18028,71,1209.227
-5612,644,0,-690,33608,35096,2317.68,177.7663,2331.083,5265,17844,90,13.83161
-5700,568,0,-707,33784,35080,2315.687,178.6426,2330.584,5236,17972,109,14.24399
-5664,604,0,-686,33848,35240,2315.928,178.1959,2330.0,5236,17868,90,1209.124
-5652,684,0,-693,33224,35160,2318.522,178.1787,2330.155,5256,17828,144,13.40206
-5376,644,0,-644,33480,35368,2321.563,178.1787,2331.649,5225,17968,128,1209.244
-5644,612,0,-688,33384,35416,2312.938,179.9313,2328.557,5310,17972,104,14.24399
-5696,688,0,-700,33192,35064,2321.718,177.7491,2330.997,5246,18040,101,15.08591
-5716,672,0,-671,33304,35384,2320.601,179.5017,2331.254,5233,17972,85,14.69072
-5704,632,0,-709,33304,35128,2319.244,177.3196,131.8213,5270,17940,76,13.40206
-5624,744,0,-652,33528,35080,2319.622,177.7663,171.2887,5202,17852,180,11.54639
-5668,612,0,-706,32455,34344,2320.034,177.8351,130.5326,5256,18020,77,9.398625
-5716,704,0,-601,33176,35192,2320.601,177.7663,2331.495,5203,18040,110,14.26117
-5648,660,0,-625,33368,35512,2319.948,178.6426,2331.014,5243,18084,102,1209.381
-5584,648,0,-658,33544,35896,2319.742,179.055,2330.722,5216,17984,66,1209.107
-5564,596,0,-664,33624,35832,2320.498,178.6426,2331.563,5234,17768,192,1209.072
-5704,676,0,-667,33848,37641,2318.969,179.6907,2329.519,5218,17860,106,8.865979
-5924,580,10274,-728,37369,38665,2320.601,1208.333,2331.323,5347,17928,273,8.969072
-5484,636,0,-632,38073,37385,2319.57,178.9691,2331.478,5229,18008,99,26.18557
-5376,632,0,-618,38425,36264,2319.777,178.9003,2330.945,5262,18076,61,13.40206
-5708,596,21717,-699,38521,38841,2320.567,1208.213,2331.254,5237,17960,53,10.30928
-5776,600,27382,-698,29703,32311,2320.189,1208.265,173.677,5339,18016,169,11.18557
-5700,592,24854,-749,30807,34328,2320.344,1208.299,171.512,5257,18088,64,9.5189
-5700,740,26790,-695,31047,35032,2319.742,1208.265,171.512,5235,18140,94,10.36082
-5676,752,28470,-665,31015,35512,2319.295,1208.265,171.9588,5255,17972,110,10.2921
-5680,648,17556,-666,35608,37641,2319.983,1208.179,170.0687,5241,18000,86,9.690722
-5648,692,23285,-765,33304,35864,2320.429,181.5979,172.6804,5235,18024,147,9.862543
-5648,612,26934,-588,32199,36873,2319.76,178.6598,2330.292,5297,17824,155,8.969072
-5740,680,27686,-665,33032,36664,2320.447,178.677,2331.117,5206,18060,107,9.381443
-5572,640,0,-658,35096,36440,2319.983,1208.282,172.2509,5272,18104,81,9.862543
-5336,588,0,-631,47099,45435,2320.515,1208.11,170.8419,5153,17900,296,25.60137
-5356,460,0,-792,40201,41962,2320.618,19.5189,2331.031,5421,18100,107,10.36082
-5664,540,0,-703,42330,40425,2321.048,20.34364,2331.048,5270,17868,84,9.089347
-5580,812,4769,-803,41178,40121,2317.766,1208.161,2330.515,5104,17984,177,8.487972
-5584,764,0,-737,47099,37577,2318.179,1208.333,2330.292,5269,17928,97,9.501719
-6084,1212,23413,-1484,40713,39081,2319.433,1208.265,2329.931,4748,17852,-55,11.54639
-5620,556,19364,-674,41226,40025,2316.735,1208.247,2330.533,5204,18164,118,14.72509
-5376,864,0,-2270,48379,36408,2318.058,1208.333,2329.725,5773,18000,116,9.450171
-5636,516,26886,-590,40185,39609,2317.698,1208.144,2330.344,5330,17960,140,15.92783
-5504,640,27590,-665,39337,39961,2318.729,1208.265,2331.117,5287,18044,123,14.31271
-5672,728,28727,-658,40121,38953,2320.447,1208.093,2330.722,5210,17956,73,18.04124
-5516,656,20068,-702,40345,34904,2320.928,1208.35,2330.464,5314,17916,69,1209.158
-5704,664,25654,-762,34520,35112,2320.979,181.0137,2331.357,5155,17984,100,1209.141
-5656,620,20292,-692,35848,34984,2320.842,178.8488,2330.808,5279,17988,114,1209.175
-5496,484,0,-1044,43306,41306,2320.464,180.0687,2330.808,5064,17908,228,10.7732
-5412,596,0,-587,41690,39337,2320.79,177.1821,2331.942,5190,17912,195,9.742268
-5568,644,0,-667,42874,39449,2319.536,177.6289,2330.636,5262,17864,139,9.278351
-5692,568,0,-637,46203,41114,2320.756,177.7148,2330.481,5203,18004,131,11.42612
-5608,720,0,-647,48811,42730,2320.533,177.7148,130.189,5242,17896,109,9.432989
-5576,696,0,-647,48939,43050,2320.687,176.8385,133.8488,5243,18064,100,9.862543
-5604,512,0,-728,49436,43466,2320.945,176.8557,170.2749,5261,17924,64,9.467354
-5680,604,0,-698,49420,43290,2320.653,177.268,137.5258,5166,18160,131,9.931272
-5636,620,0,-658,49115,43354,2320.378,179.3986,170.2921,5261,18188,97,9.931272
-5520,648,0,-703,49356,43322,2320.275,177.2852,170.2749,5266,17900,66,9.931272
-5572,608,0,-686,49340,43562,2320.429,176.8728,171.1856,5284,18056,115,9.914089
-5412,612,0,-660,49468,43354,2320.704,177.3024,175.4467,5217,17864,90,11.2543
-5492,612,0,-657,49436,43482,2320.155,179.0378,127.9897,5230,18076,81,9.587628
-5588,556,0,-637,50236,41834,2320.344,178.6598,2331.306,5243,18028,101,11.18557
-5616,584,0,470,48059,44282,2319.931,131.4948,2331.168,4896,17980,96,11.59794
-5384,696,0,66,48347,45179,2320.086,136.6495,2330.859,4964,18112,165,9.948454
-5468,696,0,-690,48203,45099,2320.739,179.8625,2331.443,5206,18036,117,11.27148
-5532,644,0,-674,48395,45739,2319.811,136.5807,2330.808,5284,17900,78,11.2543
-5396,688,0,-694,48443,45867,2320.378,175.9966,2331.203,5184,18104,121,11.23711
-5576,596,0,-621,46683,45403,2320.258,138.1443,2331.392,5340,17988,69,10.17182
-5496,696,0,-715,47371,45579,2319.553,139.5876,2331.083,5264,17992,80,12.31959
-5576,668,0,-674,47579,45739,2320.515,177.1134,2331.065,5274,18092,125,10.189
-5464,700,0,-689,47659,46059,2317.199,177.0619,2330.997,5254,18088,122,10.17182
-5492,680,0,-629,47611,46827,2316.512,1208.368,2330.481,5256,17996,146,11.08247
-5552,724,0,-669,47739,46347,2321.083,177.5258,2330.412,5235,17940,79,10.24055
-5504,708,0,-654,47611,46251,2315.636,176.6839,2330.687,5197,17888,99,10.65292
-5496,772,0,-620,47339,46107,2315.034,176.6839,2330.395,5246,17964,96,9.329897
-5432,612,0,-669,47291,46043,2317.543,137.646,2330.756,5157,18064,174,10.6701
-5540,700,0,-663,47019,45339,2318.454,132.5086,2330.704,5238,18060,123,9.75945
-5496,728,0,-702,47067,45931,2316.46,177.5773,2330.773,5233,18064,56,10.60137
-5528,672,0,-751,47115,45947,2316.203,137.2337,2328.797,5328,18032,131,20.03436
-5564,772,0,-684,47259,45947,2320.55,139.2612,2327.818,5235,17964,139,10.65292
-5424,708,0,-701,48059,46267,2320.515,176.8213,2329.983,5156,18036,173,11.08247
-5504,688,0,-652,47371,45771,2320.808,176.3746,2328.385,5298,17972,99,9.450171
-5440,548,0,-619,47371,47099,2320.79,176.6667,2329.141,5302,18084,-50,9.690722
-5572,768,0,-667,47275,45883,2322.99,177.8007,2330.997,5278,17956,182,1209.313
-5552,684,0,-645,47419,45723,2320.395,176.1168,2329.244,5226,18064,81,1209.192
-5548,636,0,-626,47787,46395,2321.271,175.6357,2330.601,5177,17968,128,1209.278
-5532,672,0,-694,48251,46683,2320.687,177.2852,2328.643,5259,17952,83,11.68385
-5512,692,28727,-738,40185,41226,2320.825,1208.282,2329.158,5252,17956,78,1209.261
-5552,780,23509,-620,43706,43066,2320.653,1208.161,2330.515,5220,17872,92,1209.244
-5672,696,24373,-645,43946,43338,2320.687,1208.282,2329.33,5213,17932,154,1209.278
-5584,692,26870,-666,40553,39993,2320.859,177.9038,2328.488,5239,17972,71,1209.347
-5548,672,0,-566,48907,45819,2320.773,176.8728,2330.137,5160,17948,41,8.969072
-5568,604,0,-651,48619,46059,2320.962,178.6426,2331.306,5212,18076,122,10.2921
-5588,728,0,-659,49003,46347,2320.997,176.9416,2329.931,5252,18004,106,9.810996
-5548,620,0,-551,48139,45355,2320.979,179.0722,2329.691,5212,18052,111,1209.244
-5496,520,35000,-544,37593,35848,2320.894,1208.23,2329.124,5293,17844,120,1209.364
-5660,688,23637,-642,43514,37305,2321.048,1208.265,2331.151,5379,18168,85,85.36082
-5792,664,0,-753,47867,43066,2321.031,176.89,2330.309,5350,18092,263,1209.484
-5448,724,0,-721,47931,44490,2320.773,177.8694,2330.052,5279,18256,296,8.453609
-5560,576,0,-552,47995,43194,2320.069,176.5292,2328.814,5263,18068,93,11.42612
-5440,608,0,-692,48475,43818,2320.653,177.7835,2329.278,5290,18060,51,11.30584
-5532,752,0,-757,48395,44762,2320.739,176.4605,2328.643,5368,17884,157,10.60137
-5512,628,0,-702,48667,44842,2320.997,135.4467,2330.447,5245,18068,119,10.65292
-5484,688,0,-699,48923,44698,2320.55,176.8728,2330.859,5263,17928,113,11.13402
-5472,584,0,-677,48635,45211,2320.756,136.9244,2330.894,5268,18108,100,10.72165
-5548,648,0,-657,48571,44682,2320.894,138.866,2330.928,5204,18008,105,10.70447
-5444,720,0,-676,48811,45419,2320.618,178.1959,2330.928,5262,17964,63,15.39519
-5596,644,0,-634,48923,45419,2320.962,176.4605,2330.378,5163,18120,128,1209.674
-5432,672,0,-669,48827,45435,2320.962,179.4158,2331.083,5279,18044,124,1209.313
-5580,616,0,-681,48811,44618,2320.894,177.7148,2331.203,5277,18032,131,1209.175
-5360,704,0,-610,49596,45995,2320.808,176.9416,2330.55,5232,18012,114,1209.21
-5492,640,0,-635,43274,42250,2320.945,178.866,2330.704,5178,18020,155,1209.089
-5668,468,1264,-1207,32039,36873,2320.67,177.2509,2331.254,5398,17944,-112,1209.124
-5804,732,27750,-765,32551,34984,2320.704,177.9725,2330.894,5185,17864,58,12.09622
-5424,876,0,-702,37593,39161,2320.842,177.0962,2330.584,5221,18092,-40,1209.244
-5656,736,22533,-624,34344,37945,2320.997,179.7079,2331.409,5349,18168,-41,19.89691
-5656,700,16099,-679,31527,39673,2321.117,178.4536,2330.567,5218,17992,113,18.69416
-5616,628,21093,-699,31495,39689,2321.426,180.567,2330.876,5262,17896,106,17.01031
-5772,704,21765,-666,31495,39657,2321.409,178.4364,2331.478,5290,18056,143,17.45704
-5704,872,21701,-639,31991,39689,2321.34,178.4536,2330.928,5218,18100,128,18.28179
-5616,736,22229,-677,32183,38937,2320.997,177.5945,2330.412,5220,17968,98,18.28179
-5640,744,21685,-652,31559,38921,2321.117,177.1134,2331.529,5222,17968,101,12.97251
-5592,720,35624,-722,27814,30519,2321.375,1208.402,2330.945,5265,17964,-84,1209.192
-5572,704,36120,-725,30359,30903,2321.34,1208.196,2331.134,5229,17888,-59,1209.072
-5652,732,38153,-670,32423,32023,19.34708,20.84192,2331.168,5258,17844,124,1209.192
-5404,716,33976,-698,35896,33976,2321.186,1208.419,2330.773,5251,18008,50,1209.296
-5628,736,35368,-713,36184,34408,2321.529,1208.35,2331.1,5192,17932,186,1209.347
-5620,792,37673,-679,37913,35880,2320.945,1208.419,2331.821,5194,17968,96,1209.158
-5536,672,38185,-602,37481,36776,2321.083,1208.35,2331.134,5258,18096,97,1209.141
-5652,712,38505,-703,28871,34424,2321.289,1208.419,2330.447,5221,17964,247,1209.399
-5736,752,39033,-674,30775,34552,2321.151,1208.333,2330.67,5240,17948,113,1209.072
-5704,752,37801,-678,35656,35432,2320.756,1208.333,2331.271,5284,17864,122,1209.158
-5668,676,37385,-712,33592,35720,2321.306,1208.282,2330.79,5272,18036,113,1209.278
-5620,688,34568,-695,34792,34920,2320.876,176.2887,2330.859,5207,17924,107,1209.227
-5676,712,34792,-696,35352,34616,2320.979,177.543,2331.014,5269,17956,101,1209.278
-5408,840,42810,-640,27366,28598,2320.756,1208.35,2330.653,5329,17968,109,1209.364
-5868,468,31927,-783,35288,34280,2318.711,1208.316,2330.859,5446,17700,1300,1209.278
-6152,768,41738,-733,29127,32567,2321.151,4.828178,2330.979,5261,17568,34,1209.192
-5832,836,25078,-678,37593,36712,2321.048,1208.333,2330.722,5291,17904,-201,27.43986
-5744,656,23333,-603,36921,37641,2320.79,177.8522,2330.997,5354,17896,128,1209.313
-5616,748,0,-619,39321,40953,2321.014,1208.282,2330.722,5238,17920,115,1209.261
-5740,800,39337,-621,35080,30455,2318.729,1208.127,2330.429,5349,17980,317,1209.158
-5804,568,20725,-730,33800,37321,2321.22,1208.282,2331.271,5074,17748,-23,1209.278
-5736,756,27846,-670,34904,37657,2316.804,1208.35,2328.711,5268,17872,144,1209.33
-5800,748,28727,-660,34888,37977,2316.237,1208.144,2330.344,5241,18036,111,1209.278
-5764,776,26550,-673,35080,38009,2320.653,1208.23,2330.017,5257,17876,87,1209.364
-5724,716,0,-644,39305,39801,2320.653,179.244,2329.175,5220,17988,123,14.19244
-5648,704,0,-807,38937,40345,2319.691,178.9175,2329.948,5162,17944,308,1209.381
-5728,740,0,-707,39577,40777,2320.687,178.8832,2329.845,5288,17896,142,17.43986
-5612,728,15395,-710,35944,39721,2320.739,178.9519,2329.983,5341,17960,84,1209.296
-5672,808,0,-677,36344,40665,2320.859,178.5052,2330.069,5260,18028,131,21.27148
-5616,700,0,-720,36856,40857,2320.533,178.5567,2330.962,5310,18072,134,17.07904
-5724,748,0,-653,36008,39865,2321.048,178.5567,2331.787,5285,18116,96,15.44674
-5696,688,0,-618,36136,39785,2323.866,178.1615,2331.203,5263,18084,-46,17.92096
-5532,740,13219,-554,36792,40441,2321.392,180.3608,2329.33,5212,17984,181,1209.983
-5664,892,0,-688,36328,39689,2321.46,178.6254,2329.502,5280,18008,128,1209.88
-5752,700,0,-702,36873,39545,2321.718,179.0034,2329.794,5163,17848,222,1209.845
-5676,748,18996,-657,36760,38329,2321.701,178.6082,2330.344,5230,18008,197,1209.845
-5684,764,0,-604,35496,38569,2321.701,139.4845,2328.282,5257,18040,149,1209.845
-5628,708,0,-728,34968,39353,2321.512,134.622,2330.567,5228,17976,108,1210.0
-5684,732,0,-712,35688,39321,2322.165,177.3539,2329.106,5281,18020,91,1209.931
-5520,764,0,-695,35704,39385,2321.529,177.7835,2328.196,5292,17976,93,1209.948
-5608,740,0,-653,35928,39593,2320.412,177.8007,2330.086,5228,18116,120,1209.811
-5640,696,0,-684,35592,39689,2320.584,179.055,2328.814,5264,17852,92,1209.777
-5692,636,0,-655,35368,39833,2321.443,178.2131,2328.419,5157,17892,105,1210.034
-5668,744,0,-702,35704,39849,2321.632,138.9863,2328.419,5250,17856,73,1210.086
-5640,712,0,-683,35816,40057,2321.718,139.5533,2329.227,5299,17824,81,1210.0
-5708,752,0,-656,35928,39785,2321.718,179.4845,2328.711,5239,17996,98,1210.309
-5736,716,0,-668,35352,39673,2321.495,178.2131,2329.192,5245,18092,127,1209.948
-5664,816,0,-703,35704,39865,2321.856,178.2302,2329.536,5259,18044,122,1209.897
-5772,800,0,-666,35416,39673,2321.529,178.6426,2328.729,5257,17988,93,1210.309
-5664,784,14771,-702,32007,39657,2321.667,178.2131,2328.883,5253,17960,129,1209.88
-5644,732,0,-719,32743,39593,2321.684,178.2302,2329.914,5309,18004,89,1209.983
-5692,760,0,-668,33208,36889,2321.615,140.4639,2328.591,5233,18012,99,11.68385
-5528,756,0,-700,33592,36889,2321.718,178.2474,2330.309,5293,18000,53,11.68385
-5616,796,0,-644,35448,37481,2321.718,179.0893,2329.33,5190,17984,106,22.90378
-5672,652,23221,-662,36440,38265,2321.512,177.9038,2328.402,5234,17944,83,16.30584
-5148,1016,19300,2460,38585,33624,2322.062,1208.213,2329.88,4268,18084,-118,1209.794
-5832,168,0,-707,35368,47003,2321.615,1208.333,2328.351,3185,17028,-3145,1209.966
-5200,548,0,-1287,47275,42586,2321.529,178.0069,2330.412,5498,18108,150,12.76632
-5596,856,0,-779,48139,42762,2321.495,1208.213,2329.141,5332,18008,31,13.48797
-5508,680,0,-551,47147,45499,2321.752,179.4502,2330.361,4991,17948,67,8.556701
-5488,764,0,-727,47547,45947,2321.546,181.1512,2329.227,5227,17980,39,9.398625
-5436,796,0,-709,47739,46155,2321.787,1208.196,2330.601,5239,18104,141,8.969072
-5448,856,0,-666,47371,46075,2321.392,180.7045,2330.12,5222,18008,110,8.556701
-5500,596,0,-664,47771,46203,2321.838,179.8969,2330.584,5279,18080,100,8.986254
-5444,840,0,-703,47835,46107,2321.924,181.9931,2329.76,5255,17960,86,9.879725
-5488,688,0,-652,47899,45835,2322.045,179.4502,2330.756,5249,18052,121,8.969072
-5616,788,0,-658,47995,45323,2321.735,178.1615,2331.186,5273,17980,136,11.68385
-5552,828,0,-679,48219,45819,2322.148,138.2818,2330.206,5244,18008,93,14.26117
-5520,640,0,-641,47883,45371,2322.01,1208.299,2331.1,5284,18060,90,12.09622
-5568,820,0,-698,47723,45819,2321.993,178.6254,2331.237,5179,17920,188,11.27148
-5440,844,0,-700,47899,45947,2322.027,180.3436,2330.515,5281,17980,85,11.68385
-5488,776,0,-691,47803,46091,2321.907,178.1959,2330.722,5270,18108,113,14.67354
-5476,728,0,-672,47595,46091,2322.01,135.4983,2330.344,5250,18276,64,1210.0
-5572,656,0,-735,48187,44714,2322.027,179.7938,2330.034,5379,18000,-9,9.639175
-5516,748,0,-670,48683,44314,2321.77,177.646,2330.636,5349,18056,78,10.54983
-5476,808,0,-629,48811,44266,2321.959,1208.23,2330.687,5214,18084,86,15.53265
-5484,760,7649,-707,46347,43226,2322.045,1208.11,2330.808,5223,18112,120,14.12371
-5484,736,0,-665,48331,37049,2321.684,177.7663,2331.46,5220,18144,114,14.07216
-5484,760,0,-567,48395,37657,2321.942,178.5911,2329.914,5201,18036,124,16.18557
-5472,680,0,-634,48539,37641,2321.856,1208.299,2331.375,5184,18176,135,19.53608
-5564,780,0,-677,48475,38137,2323.093,1208.144,2331.735,5258,18112,105,15.7732
-5604,740,0,-696,48907,38809,2322.096,177.6632,2330.258,5241,18068,95,13.24742
-5452,744,0,-684,48619,39369,2322.68,178.5395,2331.151,5185,17988,102,12.81787
-5472,752,0,-662,48571,39497,2322.01,178.5223,2330.55,5220,17984,123,12.35395
-5556,684,0,-641,48171,45691,2322.113,178.2131,2330.172,5106,18108,184,8.917525
-5448,716,0,-679,46603,46251,2322.474,179.0893,2330.052,5191,17940,101,14.86254
-5548,692,0,-672,48811,47323,2321.942,177.3711,2330.223,5262,18064,51,9.639175
-5480,784,37593,-740,36056,42506,2322.182,1208.179,2330.309,5139,18016,262,1209.278
-5564,748,32007,-475,40025,41338,2322.251,178.1272,2329.983,5290,17848,-177,1209.192
-5684,836,39177,-891,36408,39929,2321.787,179.055,2330.069,5311,18040,147,1209.313
-5660,924,39609,-679,36696,40313,2322.217,177.3196,2331.649,5292,17944,102,1209.313
-5656,692,39689,-715,37017,40505,2322.165,179.0722,2331.34,5302,17992,105,1209.192
-5636,808,39673,-624,37081,40665,2322.285,178.6598,2331.752,5302,18016,72,1209.313
-5376,828,39609,-687,35544,40825,2322.285,180.7732,2331.22,5124,18024,117,1209.21
-5696,772,0,-700,38057,42330,2322.096,16.75258,2331.186,5283,17956,143,1209.175
-5664,852,22789,-621,33912,36104,2322.354,1208.316,2331.684,5145,17984,9,1209.141
-5720,740,25750,-678,34056,36664,2322.01,1208.196,2331.065,5219,17988,121,1209.124
-5692,948,40761,-591,37129,32439,2321.907,1208.299,2331.151,5423,17836,101,1209.296
-5740,852,0,-674,35864,34728,2321.924,19.811,2330.911,5257,17880,61,1209.21
-5528,752,25110,-726,35064,37657,2322.027,17.35395,2330.704,5192,18264,72,1209.244
-5652,764,26630,-636,35768,37801,2322.217,1208.247,2330.928,5182,17976,133,1209.227
-5688,688,27510,-720,36008,37705,2321.718,1208.316,2331.701,5288,17968,111,1209.158
-5668,804,29335,-621,38201,37545,20.6701,1208.23,2331.048,5288,18012,214,1209.296
-5652,800,31095,-678,38489,37897,2321.907,1208.23,2330.756,5181,17972,87,1209.399
-5636,832,30119,-675,38345,38105,2321.873,1208.179,2331.375,5225,17936,111,1209.124
-5660,728,27926,-674,28630,38665,2321.649,1208.144,2330.979,5224,17888,104,1209.244
-5464,808,26630,-639,34648,37433,2321.752,1208.299,2331.134,5313,18060,113,1209.313
-5492,784,31751,-624,32311,37737,2320.808,15.73883,2331.254,5242,17964,199,1209.33
-5628,772,30247,-582,32904,37753,2322.199,17.71478,2331.186,5324,18044,97,1209.57
-5712,816,34056,-640,31335,38105,2321.804,19.45017,2330.825,5236,18096,87,1209.347
-5584,840,33400,-736,32007,38985,2320.155,15.72165,2331.22,5256,17984,97,1209.296
-5560,792,32567,-671,33032,39193,2320.962,16.70103,2331.271,5235,17984,114,1209.364
-5592,860,33224,-668,32856,39193,2321.804,1208.093,2330.876,5226,17968,79,1209.33
-5628,796,28662,-633,33720,40425,2322.01,19.08935,2330.515,5191,17928,164,1209.261
-5680,872,29495,-684,34040,40873,2321.804,1208.093,2331.048,5264,17944,129,1209.175
-5664,772,28903,-698,34536,41162,2322.474,1208.11,2330.997,5242,18032,46,1209.364
-5668,788,29959,-681,34680,41146,2321.443,1208.058,2331.392,5264,17952,134,1209.296
-5860,880,33432,-680,39945,38473,2321.632,1208.093,2330.945,5335,18044,144,1209.45
-5652,844,33320,-621,40121,39433,2322.079,1208.161,2330.756,5159,18112,75,1209.502
-5660,832,32663,-878,39385,41578,2321.134,177.6289,134.3814,5217,17868,-18,1209.484
-5684,864,0,-551,42762,44074,2321.873,138.6082,2330.326,5197,17952,175,1209.21
-5564,796,0,-617,42730,43546,2322.165,180.945,2330.962,5226,18076,138,16.83849
-5576,728,0,-699,43642,43898,2320.79,180.0687,133.8316,5256,17964,92,1209.433
-5616,796,9266,-617,40281,41994,2322.096,182.1993,2330.67,5330,17992,38,14.79381
-5664,808,13155,-694,40217,42314,2321.598,1208.419,2330.928,5335,17944,169,1209.553
-5612,812,0,-651,43002,42762,2320.79,143.4192,2331.649,5159,17804,86,15.63574
-5540,784,0,-678,42938,43002,2322.217,138.11,2330.859,5306,18016,113,16.06529
-5544,844,0,-679,43098,43354,2321.77,134.6564,2330.67,5174,18040,122,16.04811
-5580,776,0,-675,42426,42506,2321.478,179.7079,2331.22,5200,17956,119,15.63574
-5560,772,0,-695,42746,42010,2322.01,177.9725,2330.894,5274,17948,60,16.04811
-5660,828,0,-697,42042,41994,2322.131,141.3918,2330.876,5263,18104,118,17.43986
-5600,736,0,-635,35576,41210,2322.423,137.3711,2331.357,5240,17952,152,15.80756
-5628,796,0,-675,36008,41498,2321.907,139.3471,2330.894,5229,17884,109,14.12371
-5516,760,0,-648,36953,41674,2321.821,138.4364,2330.876,5240,17884,87,13.71134
-5592,760,0,-666,36921,41738,2321.752,138.8488,2330.567,5230,18028,117,10.7732
-5608,764,0,-733,37433,41946,2323.024,136.3574,2329.863,5301,17968,46,11.18557
-5584,764,0,-703,37241,42042,2320.687,138.8316,2330.653,5216,17964,117,10.7732
-5620,784,0,-675,36856,41994,2323.677,136.8385,2332.457,5252,18048,106,12.45704
-5592,852,0,-687,37065,41946,2320.808,135.6529,2329.845,5233,17892,138,10.34364
-5556,704,0,-643,37657,41994,2321.942,135.8076,2329.588,5238,17876,112,10.36082
-5564,868,0,-640,37417,42010,2322.165,135.2749,2331.942,5233,17904,127,10.36082
-5576,684,0,-659,37561,42122,2322.079,136.0653,2330.825,5217,17860,105,11.6323
-5704,776,0,-661,37913,42394,2322.285,179.622,2331.151,5202,18040,117,11.23711
-5600,736,0,-707,37785,41962,2322.217,138.5739,2331.856,5261,17988,68,10.0
-5604,712,0,-668,37817,42202,2322.302,134.1753,2331.048,5228,17976,100,10.0
-5644,688,0,-707,37913,42426,2322.32,1208.316,2330.773,5244,18060,108,9.587628
-5648,820,0,-656,35576,41434,2321.856,131.9759,2330.704,5235,18048,122,10.79038
-5752,740,2640,-663,34616,38073,2322.165,134.2612,2330.653,5299,17900,49,1209.313
-5680,708,14819,-688,34344,37433,2322.079,134.5017,2330.756,5234,18060,158,13.23024
-5376,780,0,-636,37369,40617,2321.804,1208.436,2330.739,5214,17988,128,10.34364
-5644,828,4625,-707,36873,41434,2322.509,1208.385,2331.203,5254,18012,29,11.32302
-5572,756,0,-674,38041,42154,2322.629,1208.333,2330.894,5215,17972,116,10.36082
-5640,800,0,-716,37721,41386,2322.491,1208.265,2331.667,5251,17884,89,9.261168
-5572,728,0,-692,37449,42618,2322.199,141.1684,2331.186,5216,17952,105,9.639175
-5588,712,0,-633,37753,42554,2320.515,1208.299,2330.155,5205,17948,88,10.05155
-5652,708,0,-655,37897,42410,2322.732,140.6701,2331.512,5223,18068,115,10.05155
-5572,816,0,-657,38105,41994,2322.027,1208.35,2330.395,5219,17976,117,10.53265
-5660,772,0,-685,38105,42698,2320.344,1208.076,2328.883,5291,18028,105,10.51546
-5556,708,0,-644,38233,42682,2321.46,131.134,2330.515,5204,17904,91,10.54983
-5704,800,0,-661,38377,42746,2321.357,1208.265,2329.845,5235,17908,93,9.690722
-5620,852,0,-662,38489,42538,2321.667,1208.179,2329.381,5288,18008,120,9.278351
-5604,824,0,-710,38425,42762,2321.512,137.921,2329.691,5240,17940,91,9.261168
-5516,712,0,-684,38649,42490,2321.426,1208.299,2329.536,5238,17964,31,9.690722
-5536,764,0,-637,38553,42650,2321.77,141.0481,2328.866,5210,18028,122,10.60137
-5572,748,0,-636,38473,42474,2321.46,1208.299,2329.897,5171,18012,80,9.329897
-5616,812,0,-691,38617,42698,2321.409,1208.402,2329.381,5299,17920,91,10.17182
-5564,772,0,-719,38761,42474,2321.34,1208.247,2330.034,5288,17912,147,9.690722
-5568,792,0,-659,38889,42618,2321.306,137.2509,2330.258,5236,18024,6,9.690722
-5576,780,0,-662,38649,42506,2321.581,179.1753,2329.313,5207,18068,75,9.329897
-5652,880,0,-674,38665,42522,2321.546,178.7457,2329.948,5239,18008,144,10.65292
-5616,820,0,-670,38729,42618,2321.649,1208.385,2330.206,5217,17980,144,10.24055
-5560,720,0,-675,39129,43402,2321.924,179.5704,2330.842,5313,18164,37,9.690722
-5712,716,0,-652,38841,42650,2321.787,134.5361,2330.842,5271,18164,111,9.828178
-5536,772,0,-715,38665,42794,2321.598,136.5292,2331.083,5232,18132,185,10.65292
-5504,704,0,-658,38921,42698,2321.873,135.0344,2330.722,5169,18020,42,10.58419
-5700,764,0,-665,38713,42858,2322.302,138.5395,2330.67,5255,17964,147,9.810996
-5540,800,0,-629,38745,42730,2321.976,133.7973,2331.443,5279,17968,150,9.398625
-5572,772,0,-699,39161,43098,2322.234,134.4845,2330.103,5256,17840,94,9.329897
-5624,880,0,-745,38985,42906,2322.354,137.9725,2330.773,5302,17920,103,9.862543
-5584,812,0,-648,38841,42986,2322.234,179.1581,2331.186,5247,18144,112,9.398625
-5540,776,0,-696,39257,43114,2322.148,178.7285,2330.155,5225,18068,106,9.75945
-5516,744,0,-678,39689,42650,2322.302,136.3574,2330.739,5312,18040,121,11.18557
-5428,752,0,-677,38937,43018,2322.096,178.7629,2331.46,5152,18036,116,9.75945
-5484,816,0,-669,38969,42842,2321.942,135.1375,2330.739,5229,18072,90,10.30928
-5580,780,0,-651,38969,42762,2322.217,136.9588,2330.808,5207,17972,202,11.13402
-5624,760,0,-701,39417,43274,2322.01,1208.213,2331.117,5285,17968,89,9.690722
-5704,740,2672,-653,41370,42842,2322.113,134.7938,2330.653,5285,18008,56,9.948454
-5584,832,0,-629,41450,43386,2322.045,1208.213,2330.653,5190,18048,134,9.587628
-5552,696,0,-689,43354,43994,2321.495,178.8488,2331.254,5273,17912,142,84.84536
-5680,864,32727,-611,40169,42522,2320.309,179.3299,2331.117,5285,17864,147,11.68385
-5484,888,0,-742,40441,41210,2320.378,180.945,2330.773,5351,18016,194,9.347079
-5036,928,0,-843,46779,44410,2317.302,1208.213,2330.773,4721,17836,429,15.80756
-5468,736,0,-700,46859,45323,2319.966,178.4021,2330.412,5315,18008,89,1209.296
-5116,944,0,-980,47035,46123,2319.536,178.0069,2330.326,5259,18080,196,18.33333
-5544,736,0,-712,47179,46187,2316.821,178.4364,2331.031,5249,18020,100,18.76289
-5416,780,0,-722,47355,46779,2317.955,1208.299,2330.481,5212,17900,73,1209.484
-5396,716,0,-721,47371,46331,2319.45,1208.23,2330.722,5194,18080,112,1209.467
-5420,764,0,-611,47979,46315,2320.12,180.6357,2330.962,5131,18028,109,12.57732
-5528,752,0,-646,47627,45563,2319.519,1208.385,2329.519,5208,18092,0,14.62199
-5652,744,0,-721,48635,45275,2319.055,1208.247,2330.344,5279,18100,84,10.82474
-5560,724,0,-668,48283,41338,2321.615,178.8488,2330.928,5151,18032,135,14.74227
-5316,788,0,-448,48619,47003,2318.729,178.9175,2330.481,5204,17956,174,15.46392
-5376,780,0,-624,44298,47227,2318.419,1208.213,2329.983,5288,18032,157,13.78007
-5548,792,0,-728,36664,47739,2320.292,178.6598,2330.498,5352,18092,160,9.209621
-5532,860,0,-708,36520,48027,223.8144,181.6151,2327.99,5246,18032,162,8.865979
-5476,796,0,-633,35528,48347,2319.313,179.5361,2330.258,5239,18060,37,9.707904
-5480,744,0,-645,43322,47483,2323.041,1208.385,2330.825,5222,17972,68,10.41237
-5528,820,0,-584,43434,48123,2318.385,181.5636,2330.618,5423,18108,95,9.570447
-5556,904,0,-582,37801,48731,2318.797,1208.35,2330.206,5299,18000,84,8.848797
-5556,764,0,-670,37433,49019,2321.959,1208.213,2330.447,5180,18052,143,9.347079
-5524,796,0,-697,37689,49340,2321.667,141.4948,2331.409,5252,17996,74,9.347079
-5488,844,0,-669,37977,48763,2322.509,138.3677,2330.876,5236,18144,116,8.865979
-5512,744,0,-675,46075,48827,2320.928,1208.265,2331.168,5265,18160,141,1209.381
-5476,856,0,-697,48507,46827,2321.632,1208.196,2330.24,5273,18024,174,16.95876
-5540,656,0,-686,48523,47291,2321.375,1208.385,2330.928,5237,18060,121,16.95876
-5424,752,0,-666,47963,46683,2322.509,1208.454,2331.357,5255,18080,115,1209.347
-5540,844,0,-628,47403,47467,2322.096,130.4124,2329.536,5269,18216,1,15.7732
-5472,792,0,-707,47675,47531,2320.223,132.646,2330.206,5164,17988,105,15.75601
-5460,780,0,-714,47723,47451,2321.684,179.6392,2330.67,5245,18004,76,14.93127
-5388,696,0,-692,43674,36616,2322.079,178.9691,2329.313,5297,17960,117,1209.33
-5348,872,0,101,39337,40953,2321.375,133.11,2329.948,5111,17976,169,10.34364
-5572,916,0,-683,39129,41450,2322.337,177.6976,2330.945,5221,18008,111,10.41237
-5540,728,0,-692,40697,42810,2318.935,178.3849,2329.674,5205,18008,114,11.75258
-5036,1008,17396,-725,41738,38345,2321.151,1208.35,2330.636,4899,17972,595,15.03436
-5648,708,0,-651,38745,35624,2321.546,11.47766,2329.76,5002,18068,214,1209.347
-5952,864,8033,-614,36536,33048,2321.306,1208.316,2330.447,5208,17836,120,16.23711
-5696,832,0,-571,38761,37641,2321.546,178.9863,2328.746,5261,18304,770,11.4433
-5724,952,0,341,38121,41514,2321.752,1208.299,2330.292,4909,17956,361,10.12027
-5800,688,0,-857,34056,38809,2321.649,177.1306,2327.938,5332,17792,50,1209.519
-5680,680,0,-607,40681,40281,2321.976,1208.247,2328.677,5368,17840,78,1209.502
-5700,684,0,-536,41898,42298,2321.959,127.8522,2329.227,5199,18280,-12,13.64261
-5708,816,0,-628,40761,43770,2321.478,1208.041,2329.725,5321,18004,115,1209.536
-5504,844,0,-565,39081,43210,2321.701,121.7698,2329.313,5324,17996,105,1209.605
-5376,856,0,-629,39097,42970,2321.46,115.3436,2328.917,5274,18052,86,1209.536
-5720,656,0,-616,33880,38105,2321.46,1208.23,2329.983,5344,18020,-78,1209.433
-5472,796,0,-713,41882,39321,2322.096,15.13746,2329.141,5213,18036,268,1209.244
-5800,936,22837,-1288,34040,30439,2321.924,177.7491,2329.399,5240,17948,92,1209.227
-5436,640,29687,-768,30263,29015,2321.563,180.0344,2328.213,5103,17940,132,1209.364
-5652,856,0,-759,38041,36472,2322.148,1208.161,2330.739,5388,18036,419,14.62199
-5512,900,25062,-662,32904,30887,2321.821,178.024,2329.295,5223,17756,144,1209.261
-5712,700,22277,-455,34824,33000,2321.907,1208.316,2329.88,5422,18016,-22,1209.399
-5692,796,0,-898,37625,36424,2321.873,179.5704,2329.227,5240,18032,100,10.36082
-5676,836,0,-674,37593,37113,2321.649,177.8522,2329.055,5240,18172,174,11.27148
-5604,788,0,-664,36873,36216,2321.838,177.9553,2328.505,5280,17916,80,11.03093
-5096,920,0,-1327,40441,40665,2321.838,179.3299,2329.553,5441,18000,-13,1209.33
-5620,700,0,-633,42938,40713,2321.976,123.1615,2329.416,5442,18076,50,1209.553
-5624,844,0,-652,44730,41578,2322.165,178.9175,2328.814,5289,17936,144,1209.158
-5656,884,0,-722,44026,42762,2322.612,178.11,2329.244,5184,18016,148,1209.381
-5572,704,0,-655,45163,43002,2321.976,177.7148,2329.622,5347,17852,26,1209.261
-5656,772,0,-703,42698,44346,2322.801,178.6254,2330.258,5237,17904,139,11.32302
-5452,960,0,-713,44730,41594,2322.629,178.0069,2328.66,5086,17972,204,14.26117
