accel_x,accel_y,fsr_1,gyro_z,fsr_3,fsr_2,ultrasonic_1,ultrasonic_2,ultrasonic_3,gyro_x,accel_z,gyro_y,ultrasonic_4
1139,-1203,59776,-435,59069,58687,13.050247874997702,17.1162797757212,11.376792903186765,-746,112,-734,11.985816728013937
-1508,539,58272,-1186,59074,58429,16.764875873281646,19.323681583772757,14.677894045492721,869,954,1487,13.815747095157747
-18,-1267,58234,-1545,58076,59442,13.27691162644614,10.676273540903573,15.241916274055463,-49,1498,1742,15.855728144185349
1792,289,58809,-1615,58419,58229,17.989728515486764,13.501483545861802,17.406473154955215,1737,-250,1270,16.490204928784493
1014,246,58555,325,58202,58900,13.686363046522246,17.77334398283787,17.61500717678353,-1421,-1702,-202,16.225136228832973
-1237,-1930,58977,-480,59651,58135,19.21141578423516,19.543729152245675,17.81770631080042,484,961,1718,11.976184622422554
-556,-93,58807,210,58962,59907,12.62691373138216,18.403770051381386,16.73763046002791,1926,1505,-1348,12.854561648924825
-1211,132,58956,1288,59068,59040,14.841268273020436,17.605352755655883,17.86412359861843,774,467,562,17.948783705965344
414,-1872,58865,-1867,58547,58824,18.880371013354004,19.781011813660086,17.44289850021038,-1319,351,-1816,11.268983189678671
243,1742,59302,-1923,58355,59126,17.176602519205872,10.364217027094613,16.78504114938269,-1343,1054,-725,10.6888236585064
-1176,-502,58317,962,59418,59610,10.443054286128712,14.407493414910654,17.605070331344837,1904,-1967,-1584,19.119261616210608
-310,-1548,59667,1177,59545,59465,10.391586242143994,17.805210012372577,16.666842254688717,931,1989,1465,19.155169765674614
-1706,1566,58880,315,58115,59148,16.887039464448318,17.07857563435701,12.769518086358204,387,-1952,-418,12.498713576952692
1350,1156,59432,-1006,59243,59763,10.900234306523767,15.785972510013478,14.099962721026753,-1360,-148,-19,17.56697572617921
842,857,59171,-1062,58330,58094,19.338654117188135,14.485062759714378,16.700079038156865,468,1047,-9,11.397539302339547
-1447,970,58251,-397,59562,59544,17.24195290046785,13.653482307206485,11.848501956324894,-1767,845,301,12.489498738102704
703,-507,59100,1080,59052,58427,16.52385958281804,13.436924479298074,14.82582254710228,-1137,1874,-1978,19.30903293268385
-1884,157,58819,-303,58753,59020,17.177859424813843,16.536803438021035,18.979503533481,546,-32,1330,16.433909828370766
-1099,-1711,59743,378,59052,59051,19.490678792013178,10.218668677145919,11.657209757057462,-1544,-673,-218,19.058416102450508
-1825,-799,59532,-1407,59046,59424,17.20318275354768,10.131151175417255,11.535669567462586,-763,1568,-263,11.486852640830456
569,-1101,59588,-651,59658,58018,15.589137076231891,12.323530055931633,13.303254173754933,1631,-110,501,17.227816498440085
883,1305,59644,-377,58519,58510,15.11027938960127,17.928311747537006,16.80190512647806,-1438,-1867,602,11.194008783119715
-1432,-299,58446,-1464,59178,59228,11.249271690306887,17.28118167448585,11.581457432708557,1361,1254,891,17.04815848868058
1470,1716,58001,-1091,58515,58661,12.733071516994762,11.941439465388312,19.160617264696654,-1319,-1041,-171,15.11979564281085
2000,-1942,59131,-1666,59361,58920,16.604946534995154,12.821259860597651,18.557936367638728,-24,-1634,-1729,13.296799438218864
-578,1227,58205,-1338,59817,59763,11.65468236558097,13.723484959086283,18.40600824034079,836,-124,-864,18.911639470040026
-783,706,59884,-715,59030,58286,18.7514959484742,15.082698050880017,17.826273764681765,1661,175,471,15.133188301142448
-299,-1012,59957,-1404,58447,58211,15.37559752180736,15.801021962170989,11.52815222035985,-467,9,-459,12.314673493786454
-723,-843,59046,-329,58741,58268,11.286230167178951,14.521835415046978,14.838166731157902,-1027,-144,1988,14.351638255017306
1514,893,58014,-741,58799,59934,18.398318618911496,19.173991142393618,14.401881930886683,214,752,-1528,15.292637791404763
1567,1369,58795,-1274,59516,59646,18.264302559304774,14.371559340017637,10.188520284777852,-1345,877,1474,16.034673116134236
-1251,957,59825,178,59709,59553,14.895856802208947,16.559965688819137,18.215025956300902,955,-88,108,15.634312207235258
-1775,-422,59633,648,58283,59523,14.34004850801338,17.813891410223725,19.73361162660354,-401,858,1120,13.25555685415468
1805,756,59926,-1211,59234,58113,15.849950736806468,14.606707474189774,18.912075687282552,-1955,438,-694,15.553825796872509
517,1890,58388,901,58169,59254,13.311388162633598,10.438299722293001,16.64243305889703,1323,628,-200,14.409292956993177
-863,-1163,58360,-814,59893,59225,11.568882681122483,13.012602028727295,14.958570181343834,1068,1330,324,14.783577216042167
-1052,-28,58734,-1202,59055,58036,18.173577717160015,17.12912199627977,13.509397144218019,-772,-1460,-1846,19.130318230507417
-214,327,59672,1913,59863,59908,12.603941223334951,19.880685205328163,19.10418818626023,739,1337,-1988,10.196992930313257
-1219,308,59454,327,58690,59694,17.810438559690553,19.554730596183756,13.757513958140203,-1005,-1532,97,10.143996355526374
-1409,661,59869,392,59904,58757,14.790592712277338,10.007980070086305,12.474661328834037,608,1975,1835,11.863492404895693
-920,599,59526,-1260,59063,59798,10.068639675816918,13.06316327590898,17.555845856519163,1808,611,-966,15.298065232893224
377,77,59903,-1010,58164,58240,14.004058181380993,19.43887933497116,15.71803464797527,699,-1120,-168,12.387188723614189
1620,1192,58954,132,59472,58654,18.495154286462082,12.265006123423898,17.064418349877826,-1342,-554,1082,19.66619877567522
1516,1773,59352,565,59194,59192,18.089342348523633,19.126212527788965,10.07583155553943,335,1988,107,13.674860514511652
1494,-1068,58634,-250,59030,58503,10.078619501278066,13.99948658281879,13.435782347581767,-1025,-1197,-1418,11.198219676079017
1957,-819,59533,-101,58693,59844,16.837810197082394,13.74363561584258,15.631648869200331,-1502,-1738,-291,19.714694882317975
-1393,1859,59284,-1899,59008,59195,19.52421103881992,16.24389556092552,17.06281249584837,306,-1678,-1646,12.413654402309788
-35,1177,58213,636,59837,58547,10.989457272112961,17.236434968254475,14.00862144101773,-1699,98,1471,16.411948653838575
-1672,-16,59746,-1961,58914,59938,18.596316019965844,16.904209627977224,14.79591937245952,284,374,133,19.72959605132874
-1898,280,59305,1401,59179,58054,14.077724692893547,13.996507175513358,14.962241374487592,-290,1892,-1415,11.136509227151151
86,650,59811,-224,59893,59407,19.197469314633892,16.100038971296858,16.111308408658264,1735,1791,662,10.68636704409466
1288,656,58760,-117,58453,59506,14.604857428164308,17.15577855814081,12.52333955517191,-1487,-1762,959,14.285486732056963
1952,-1915,59497,743,58600,58625,14.314870639726989,18.7259301584738,15.270033734488177,1679,-1323,-299,12.907297630087548
349,311,58867,1242,58397,58576,10.643531008878375,10.125276458398826,19.35264922967319,-1216,959,-776,13.027779375674893
-1769,-1809,58623,1455,58610,59663,12.095523322870285,11.451471693748466,11.778670330193373,174,510,348,16.990269921517765
-97,-170,59764,912,59175,58547,11.154524268940463,12.18641501377068,18.31007419170536,-1769,1018,-687,15.894244720277262
1614,-1536,58045,-1439,58549,58453,19.6751828462331,11.701134144581788,15.529118267593983,-1217,1015,-421,13.809332373923395
-719,-703,59015,684,59343,58474,19.16561970902596,16.149759621765536,15.977782038759972,-1493,380,-338,14.56515572125797
-592,-29,58041,-26,59115,59729,14.638821362591457,10.727068841646078,15.71289222571533,-1015,-1400,-39,17.886977362226087
-944,490,58433,84,58552,58645,15.870686304459667,18.01268006228341,14.48967193577663,43,1865,4,14.990845735258972
670,-494,59852,-805,59542,59315,19.71629623095862,13.908404663522193,12.692281614146637,320,487,-1889,10.189235099220472
1081,1692,58528,-351,59958,59094,12.71383605158738,11.021303963930809,12.396382660793968,-409,199,1008,17.004803087380765
373,1019,58811,566,58912,59268,12.816851302070141,12.468975555336636,17.500267551304933,-483,1730,-462,14.54268373252362
1203,322,58802,-842,59760,59609,19.39323108411817,11.168581679043037,11.797435924398739,-835,-822,-1694,12.872844345421626
-990,-1331,59496,1835,59761,59641,10.651069085323163,11.502635004152427,12.464238210478396,877,-689,-309,18.87319232775404
366,-1458,59048,1219,59297,58892,17.72869909420489,16.592720325476492,13.105984012434142,-577,-514,880,15.921346434096218
-1656,-993,58089,1704,58932,59490,18.23092168474475,11.690421522124558,12.87064795868882,-703,-755,1818,19.882938853581294
-1288,1714,59418,-382,58203,59382,15.365567343411383,18.767073069455297,11.98106778639247,-912,733,-1588,11.439279343173801
-1806,-1080,59496,630,58305,59696,18.397571599938075,10.054591692162768,19.105881250601055,-1750,386,1250,17.133759308740604
-987,989,59839,420,58330,58310,12.212050030041098,12.923185165606535,10.120981745132193,-1835,-585,-1341,11.016681839956386
1952,721,58833,1457,58981,59546,17.867386236890958,14.320682801356323,14.792509027551949,-132,-443,-1784,17.90708412981619
212,1903,58284,1178,59301,59027,13.74768897912056,14.894356039593081,11.413302440753379,-1571,1740,-335,18.66473293939337
-1725,-1997,58180,-1214,59801,58375,18.93049328421087,17.727941333213725,10.115412914145136,-1500,-1232,-1397,11.759770431895362
-1405,-663,58782,-32,59498,59836,19.080817027432396,14.981828252667853,18.670366564644485,1531,-1147,333,13.48027555528034
1882,596,58544,-1135,58855,58532,16.000561282095298,12.312167006823682,13.254049131466056,-172,1933,486,17.490810349929525
671,-1044,58643,-1679,59516,59111,12.205672728860318,18.15917612222063,13.220801646115827,-1059,4,421,11.36736839137883
781,173,58706,-677,58865,58041,16.38916419512129,11.331746608440696,11.369019491833228,-518,1258,-1150,11.07002342969071
429,-1677,58839,1435,59195,58311,19.879582333982132,11.624512077508008,12.760495166527125,-1938,-383,166,12.058867714324409
151,-1151,58579,1463,58989,58841,14.385246540592401,10.873509632322035,15.835667281692672,975,1632,-563,10.333812016908876
-1908,176,59680,1849,58666,59947,15.403811326834003,11.296211832157343,16.555082948724397,-714,-392,251,10.360557322599638
-984,1324,59406,-1808,59370,59245,15.29524936942033,16.064930076048178,18.854490725300003,-1895,-1708,1008,15.679818420947473
-493,-81,58239,-1731,59389,59201,16.158898185764457,10.250020367653104,16.664889470184796,-555,642,-1079,17.746308333661347
-1639,1379,58576,-86,59585,58101,19.592105957518896,16.3200593298588,10.29473027416443,-35,1280,-125,16.58012810699103
-1169,-1594,58230,1740,58674,58366,10.127588462291792,10.863047226927375,10.962167980225932,-828,-279,242,17.042678000779603
1033,1444,58608,-650,59957,58226,15.34714283619762,19.4624183467115,11.413836048519531,1125,-850,1271,18.785224828322924
1951,812,58818,-1652,59084,59811,16.349180068488387,16.987463789423114,19.675445534358573,-1458,1930,1449,19.141493155360493
671,-141,58428,340,58870,59151,16.551622679710654,15.470469346392377,12.486270150260104,674,1306,-464,14.129591786909625
-182,1902,59872,1691,58327,58562,18.999769434548362,11.495738952878117,10.161988067166574,-618,-1170,-1633,11.158075144399879
343,-1574,59392,-903,59110,59935,12.938183260229097,10.63648161091855,18.420512082744395,979,-735,1171,10.359622262051595
-104,1123,59385,1712,59439,59217,12.676174977825928,11.78848079656035,16.369503642903645,-777,1232,-796,12.745292683829831
984,-494,59516,360,59157,58691,12.646393208415228,17.70783249943667,14.330235298533118,-1259,-239,-1095,13.87044699903048
-568,-780,59405,1635,59871,59121,17.3873555081533,17.989164694910066,19.419410117409786,719,339,-1297,11.812244089413461
913,90,59294,1714,59872,58956,17.319614963261767,12.944620953578202,14.794575319360721,-1121,-1007,423,15.047201882796486
-1640,1164,58989,1348,58052,58544,14.840125969466317,19.006484219132506,10.713934995619734,-1133,1699,60,12.83478771624177
-1688,-54,58736,-315,58405,58086,12.070018932631314,17.355185886555724,17.611767068903447,-150,-1641,-805,16.45785922414499
1854,1564,58997,-1898,59148,58937,18.22713890237894,11.40545961281273,11.46017374653203,-1484,531,1463,14.285040251732507
-1830,-554,58649,31,59867,59763,18.73031054411794,10.62984789342727,11.430326480738008,493,1731,-498,11.954249871753541
-1564,647,58757,441,58627,58623,15.7954355516766,13.07182923486385,16.53434061491687,-576,-1737,1176,10.118061737201415
-1530,1408,58305,1289,58897,59577,15.328045748251974,13.243876191679298,12.162514255257026,-179,-1869,-1376,19.106367359879833
573,-824,59739,224,59949,58980,17.93578892713302,13.085192526146344,19.62437739106148,-1051,-1521,-1782,10.75236170085329
-2791,3059,40658,1149,41738,41211,44.953827351067744,40.693383124008456,41.367007105139514,-1745,-2313,2649,49.483624243178255
2848,2117,40411,-1400,40994,40990,49.192375886601866,46.27032159308854,40.55411479421482,2662,2917,-1951,44.80529829372058
3228,1658,40459,-2997,40933,41237,47.56463571771795,49.11384430893836,43.10411663105441,892,3878,2549,40.56628560683917
-1561,-2552,41722,3150,41203,41321,44.89301875581362,41.59975716795796,44.1844565860825,772,-3852,-3483,46.361865866177595
-2163,-2506,41163,-1711,40940,40546,47.34969381197478,46.90090435830956,49.769276737439455,2644,2682,1548,40.136671902520256
-3227,-1773,41740,237,40175,41424,44.26456495062743,47.85832430903264,46.24386001859231,-1339,-3329,-2046,43.936674714136984
-2314,-1681,40373,2799,40086,41149,44.06346462964119,47.408800653531955,44.548580853135356,-275,2658,3404,42.20639593648978
-1792,539,41130,-1909,40282,41971,42.815256489422616,41.73656539171475,46.34840526846679,2760,3513,-1509,46.1410642725014
3991,-1649,41467,451,40061,40162,43.80784597439,43.245818429794596,41.508633939192435,-1409,3041,959,46.864223580567284
-2279,1623,40151,3719,41883,40498,46.279270646391204,48.66314007935668,48.91218542928134,219,-1475,-986,44.63430676660646
-252,255,41391,-3527,41624,40673,49.348131765195134,43.6577083507146,40.825028123311974,3235,-2626,1200,44.937334582017556
-432,-3620,41959,-3811,40038,41226,44.56975851151757,41.37299118493725,47.37473931749935,111,3423,319,49.26464773922863
-1791,3065,41981,1610,40231,40058,47.56619823933582,40.23093398487018,47.17751664067558,1117,-3929,3186,45.22691377236196
-2802,-1349,40665,-1231,41322,41101,41.84217199520116,45.019570718537395,41.581354690602936,-3623,-1568,-2314,42.66530382029402
1745,1677,40064,900,40435,41385,47.04766472197678,48.99760504437168,44.78843037646032,1487,-1746,-2843,43.958454023943666
3006,-2496,41679,-886,41501,41112,41.92259363223233,47.935451550799726,44.57456605125487,56,-2283,3407,45.310308181912504
-2593,-2336,41456,-3002,40036,41314,41.777400892572246,40.281339816854846,43.56947675556863,302,-3262,-274,46.29466528956334
1827,3017,40856,-1628,40367,40989,44.17808742395034,41.67668498783994,45.11607841147371,-1676,2311,-992,45.42281228477725
-1628,-712,41650,-1282,41593,41088,47.376235449514745,45.12611308532188,46.16331442699199,-3159,3079,3033,40.78823313126638
-732,-3198,41640,-3006,40666,41909,48.169990773601405,46.01182243273683,47.894753272876486,-3518,-454,1891,42.778628584578975
2659,-23,41863,154,40619,40594,41.65626437880899,41.22033619349749,47.828231485011784,2992,678,-332,44.84879514065466
817,-3499,40449,2800,41211,41172,46.474246618305564,45.807556031269,41.27813315279782,2061,1485,-3124,46.81554453461795
-2567,-1004,41499,-2350,41427,41568,40.32898682728682,46.021537101797485,45.56380319222295,-3672,1335,2169,44.6088702054468
-3739,-3976,41650,-1917,41641,40708,48.85352606790148,47.446807189993876,42.554338868781244,-7,-1701,795,45.32607889108505
-409,3064,41648,2096,41299,40369,43.63908751727402,40.84173645586252,49.13858392938019,-3136,1624,-3894,48.52885459322913
-3303,-1936,41422,3956,41516,41978,49.376318758074746,49.35424127857507,43.287415653668965,-1271,2049,-3361,48.51617275267757
75,-2381,40660,-197,40230,41882,42.190269291497415,43.17649495746308,48.82739865087694,1031,3760,-555,47.10519717889622
3985,-2236,41188,3730,40817,41293,43.79119286451209,44.49989324251604,42.45869679623282,2527,-3964,311,40.75623119360522
-2359,3702,41048,-3861,40026,41420,49.36565007866625,48.89215807561267,48.28082863271203,1354,3244,3404,43.10853837667768
-488,317,41316,-3243,41642,41629,41.362496838515426,43.736261937887974,43.162456638942054,-2591,-3951,3992,45.38133690534091
-2061,-1523,40826,785,40841,41675,49.54868493897204,43.15672050742265,47.78504593532159,-3152,-3455,3275,40.977099731736395
-334,65,40928,-853,41696,40466,44.02911163489743,42.714493043648694,42.12183455916561,-539,-1203,-3097,46.886837363654436
-1754,3052,40944,1718,41357,40135,44.2615612317504,40.93763294031184,46.87047319011549,-1318,-142,2170,47.76319523122461
-1881,1266,40922,3805,40230,41197,43.77885990782346,43.277212753439095,49.95466452058096,-1532,2632,-2163,41.75541112389067
-878,-625,41187,659,40733,41134,44.800622483048585,42.58260066076608,40.48925963932806,1674,-445,3036,49.528536365682704
2784,-3660,40631,1587,40429,41866,43.539739769908806,47.10668852281389,46.043474628303,3410,-3229,-2268,48.530985549765745
-2225,-3208,40780,-2135,40629,41890,45.208695803086094,49.89886191068939,43.89351368114439,-2513,-3157,3125,44.058614734829185
1718,-932,41200,678,40223,40756,48.76281948710005,45.45973099082931,41.79657244839356,3378,-678,-2689,46.184935113632605
-2462,-2999,41675,-2990,41211,41688,46.91847454027899,41.13862993904652,41.43853855129669,-569,1650,-3350,42.077569615230615
3381,-2184,41164,1204,41923,40995,48.85979949852042,49.41344825670033,46.170682315305584,-3512,-2450,3869,47.2682951605477
-3558,675,40905,-3841,41875,41848,49.85229782344553,43.1884617952101,46.921672326718664,2337,-2839,154,43.743702057834625
-488,-1208,41519,3993,41632,41879,48.31096470618019,40.207361604651396,48.654148759983656,-1813,-1961,1879,47.21900829351442
-519,-3411,41923,-3087,41957,40169,47.28552276350654,45.73895181221969,45.363365285554124,-1762,-2012,-106,47.76568277565724
-2619,3133,41747,2006,40014,41761,42.377456556004574,44.49238793612151,41.021241147763874,3831,-2906,-1555,47.33836590555069
-3136,-874,41425,2742,40471,40358,47.68673144130557,47.16682184226024,47.26089344470905,-1374,-1165,1539,40.57462688271898
-1010,-289,40151,-2693,40858,41480,45.45071338417615,42.47228328382864,45.23199520158979,1577,-3947,-3863,40.322713107089776
3663,19,40683,129,40431,40973,40.495393728450914,40.72439690931138,41.01004037887577,813,-2088,-2637,41.89516961070282
1527,1753,41753,-1581,41159,41666,45.21024557497081,40.953814738669564,40.387486111964236,-2327,-3773,1406,48.684712305413626
3788,899,40163,959,40718,41200,41.31395907077122,40.17673769563,47.137037699362004,3287,-3007,-3850,46.8188426747296
-1246,3499,40597,1722,41233,40393,42.39359617295416,43.359337847427796,41.72754434443845,3125,-2886,-1133,45.91487303222081
-2720,1567,41819,-788,40530,40387,42.909750757611775,48.75235873390754,44.99241573830959,383,3446,-3932,46.51654013067152
1856,2622,41346,-2319,41702,41531,43.06309670269853,40.08754139522784,42.212159480664745,-409,-3000,-2642,41.55753508864634
3327,539,40002,3431,41836,41753,47.45681898876405,47.46088547697707,48.50095370189561,-548,1232,-3884,44.97128460725157
3499,-1866,41886,-1854,40705,40246,48.66032997530704,40.624019224120474,40.14802889098746,-3351,2804,-3258,40.542523161477384
3301,1813,40906,-2099,41176,41373,46.71723809369503,48.100318964692455,45.66438184412034,1631,-3446,-2234,41.8552176339472
-2897,1974,41212,-3859,40185,40213,41.435274909963276,41.380725972802885,40.04081978712405,-3948,-3055,-1820,44.24734186112944
2304,593,41513,-27,40263,41735,45.33458752288614,46.07575431491375,43.729495391740514,3367,-191,-2413,44.4944860752136
-3065,-3969,41682,-1996,40992,41860,40.4492125630699,46.17963892226125,49.557292555703555,-629,106,-1637,46.90203906050171
-2413,-2112,40509,716,40715,40783,47.510077999770445,45.68257977038702,43.21387081048762,-3920,-2083,-1528,44.27402592982229
1360,-2477,40482,2978,40050,40818,42.21939617009846,45.2694626109309,45.04337243895723,-755,-2114,-2675,47.97593712102986
-1329,3242,40834,-2066,41877,40773,49.08217713278905,42.95259418208262,40.90948449113316,-2860,-3690,3621,46.369257277766245
3501,-391,41404,1921,40062,40222,47.715611772315725,40.07555381419963,48.3020289473002,1811,174,-3427,43.15341127405321
-31,732,40390,2478,40444,40513,48.166206130576036,42.009247171620224,41.91925704738786,-1298,-2012,3836,46.91857782370749
-2867,999,40965,3625,41538,40726,40.95035807975308,45.30163305559121,48.374175745544775,2251,-2756,2131,44.88850361515481
240,-3406,41700,-700,40134,40229,46.24908525422902,46.43673634782075,46.52985296574924,1399,2655,-2776,47.93441211735529
677,-747,41262,-393,40023,40676,46.803548301885286,42.42287953516691,46.00539198989561,-826,450,-1036,48.59554633259552
97,3967,41816,3463,41854,40786,47.084241712414695,46.6886280874266,49.42196551495752,557,-3400,784,48.76695502088042
-446,34,40232,-638,41595,41379,49.17145868834988,44.81441619891811,49.503309694341496,1077,-3414,1227,49.44505533445626
-2856,3782,40584,3372,40896,41777,48.172702648743595,43.56648283074104,41.61712234095555,-2797,1270,2446,43.66893032683612
-78,420,40367,-2094,41105,40643,45.57452219103996,48.834521160005515,47.853243672753436,2534,1308,-2077,40.040946931445326
-2824,2433,41227,3968,41620,41842,49.75267532678085,43.35651947263681,46.24397593876976,2527,-768,-1154,45.29507568638758
-2348,-749,41345,2740,41175,41862,41.18774401912848,49.44405608087971,43.40254550866272,-2495,-2009,2771,48.97653436841337
3143,879,41673,-1548,40714,41284,49.95380147237093,42.57663403351673,42.11127815271735,-3046,3665,1585,49.2411651225998
1046,-3817,40560,2195,41719,40422,49.87381908818772,41.980454893317514,42.005750265112425,-2810,-2056,424,46.70646670511483
-1475,3771,40256,1636,40752,40015,43.212399230048604,46.32295444174404,49.43347031046219,-1765,2871,-1297,48.497366337701365
2472,3519,41126,3999,40843,40100,40.710956991226865,44.988161065280124,40.529795771488374,-3249,3986,701,48.21277245774321
-2855,-822,41292,-3891,41411,40825,46.20763695621015,43.74520827737156,48.65507692805893,-3394,-2413,1097,48.76755404268496
2501,1470,40336,-835,41045,41399,43.77994106045478,40.639303538653984,47.21597296455346,-331,746,-860,45.88334978898658
2341,2646,40918,785,40340,41374,47.47112752996709,41.75640415212399,43.2357310597305,3159,3479,-935,43.343397889455716
-2173,-1496,40705,-268,41267,41488,47.15211020120051,43.99971141648997,40.72514785411462,-3522,-144,3972,47.49913865657203
961,1726,40428,1437,40326,41520,43.938852018361096,47.17280583315245,46.97612504889779,2062,2804,-3209,44.95485587525543
201,-3725,41160,-3976,41326,40340,40.05802400937366,49.35102616439946,45.01656407946557,1964,1694,1533,41.59932679225014
-1495,-3076,40363,-3994,40277,40222,49.303491568758645,46.87931679537983,47.33578253155311,-607,-3611,-892,49.86498227289688
-866,2759,41422,265,40993,40539,46.75517985006227,48.138872537283554,40.798968542540024,-1874,-2333,3960,41.028792175263014
-2211,1718,40916,-1004,40969,40025,46.696907965267755,45.87117874936814,49.03118619291444,3053,3918,1415,49.41081220049179
-1021,1468,41799,-520,40387,40503,48.75360442348887,43.792733165565636,41.88310627385772,-2366,-2907,1589,47.32280576703457
-2110,1439,41082,2388,41097,40406,44.836980016082514,40.93093813300119,47.20574512410539,-80,736,456,48.99623254135487
2123,-1406,40796,865,41922,40321,43.86747215983652,45.096142830651814,45.407678960097684,1933,1471,1975,49.63636874581644
2715,616,41258,-3656,40579,40157,48.46975708635952,40.64927434801541,47.71724548446617,-2225,645,2365,45.65562070408616
-680,1070,40969,2872,40956,41253,44.307615784958166,44.58644959476403,48.49757595314509,-527,1374,-3263,44.91465847097225
3112,551,41853,-3940,40436,41577,42.12633390756354,48.40736817252068,49.22329471579276,3316,-1102,3593,44.471330089580945
-1625,337,40300,1129,41490,40294,43.95157657295404,43.360248553839064,44.68564528482282,3312,-1640,-2151,43.04325471647324
1703,141,40774,519,40501,41223,49.589547935642216,46.89674543238338,46.973362720166996,3922,1469,1208,49.08678231299676
-1235,625,40204,3318,40109,41709,41.035267780465986,46.060927242805064,45.96160216303598,-1177,-1146,3316,45.3682984415154
522,-3847,41075,-1472,41254,40352,46.271671260997735,42.81977613353822,46.66510318636585,-2603,-2961,3581,46.28613729371698
-1684,-2462,41029,-1802,40610,40601,43.68191160910372,44.32875905346167,42.18195618877469,-2009,3204,1748,46.02156963851829
-2774,-76,41856,253,40760,41242,49.46731492218569,45.034260098537175,43.92645091706401,-1083,-1515,3742,43.872904958465234
1727,3675,40062,740,40346,41220,44.27453730120162,41.811735934787954,46.53518039910983,307,-2697,-3334,46.85318320869111
-1428,659,41343,1476,41201,40603,46.17453605971925,49.69239142465993,42.00562268949241,-1188,417,-2637,40.161098255389575
-3322,-2780,40762,909,41300,41324,40.60584665090765,43.93833678906362,49.02097165063451,417,-704,729,42.793799202060946
-2072,-526,41109,-670,41890,41214,48.71887796895386,45.44408678006108,44.5444777932795,-3728,-130,2697,44.262616131566276
-2799,-2577,41445,-129,40339,41613,47.87043328980161,44.413137259867554,44.85196567691723,-3052,-2921,540,40.60185762614357
1487,-1238,40116,76,40937,40245,43.54823828288364,48.99701569534838,48.971462032565945,2099,-2428,-2591,44.30325850907846
-1172,-1988,40567,-2142,40892,40472,49.32274224308974,42.835137206771265,41.68730770144157,-3570,3918,1529,42.903994036761574
-2816,-2540,40135,-2476,40938,41946,41.2980624337616,43.37386363507702,45.471617827796074,-1113,2306,-2059,44.906869181828
-2319,-1618,40181,-2911,41572,40202,47.83398891339911,49.01159867643955,40.69045693703364,-3954,-1409,2843,45.03009944951842
-721,-3130,41361,-3162,41016,40701,43.45184982755053,43.31574396160055,47.22375399793417,-1414,3539,2913,46.034449924392305
-1128,315,40552,1240,41567,41945,45.00451366002482,41.361851939647416,44.89270876700699,-1225,-445,3504,40.790013713617284
-3075,-2276,41453,2278,40031,41490,42.15705849075481,43.14960413827795,42.334582174862746,-2633,-274,-2969,48.49170572647499
2729,2068,41884,-2683,41134,41572,41.13818128908273,48.23524005639982,44.04893809797706,-1643,2382,-3302,48.67286883824794
-2551,-2092,41892,-2633,41758,41350,44.47425704473689,49.455543322915716,45.36089238730941,3005,-3646,1484,40.51506208213625
2155,2454,41098,-1852,41568,40251,42.43264852050376,40.45655235691557,48.63920695318602,1147,796,-3083,45.604303068081556
228,2540,41665,2940,41651,40453,44.50391598088251,40.8195608520565,47.04372025399109,-368,1512,-1711,45.03037067275276
-1236,-1434,40218,2172,40439,40381,45.460405843692556,43.41949075430156,43.16818215421716,1380,759,877,47.04683960163791
-2916,-3388,40022,-3314,41146,40158,49.102820554565625,43.95248141423911,41.2632831579321,3582,-1456,-3812,47.34824682230577
1104,565,40212,-3988,40192,41711,44.4692784502448,42.57712604663569,47.93000581137309,2627,-3276,517,42.11573880881488
175,812,40190,-2270,41413,41777,41.975638019607636,42.04022230661018,41.27116450708563,-699,2193,-2309,44.591228099422686
3718,-2863,41339,-1279,41185,41676,45.87693744485555,40.0010413915516,48.76681327848071,3610,1655,-1832,40.89092204439268
1795,1966,41218,324,40189,41703,48.52007950384311,48.30623287080286,46.5567981428146,-318,3842,-911,40.769681070280264
-261,2935,41449,3855,40201,40655,49.21654880460922,40.91463784608915,42.774610353961826,-469,3926,842,40.10770232825696
-2550,-2959,40559,3504,40398,41313,48.21245892877752,48.13679625145869,41.28772625685276,-179,1577,2576,40.71818401217124
3367,-3032,41125,256,40793,40145,42.63246577253618,49.26382623135264,40.2902243935158,273,-1240,3573,44.1742898500828
-77,1312,41689,3603,41975,40272,41.777570851320895,48.76330048795725,42.00631628253887,-2206,3103,3794,42.81958687924042
3887,1928,41531,995,41242,40604,42.009704068039206,44.07804462554658,45.202674560179595,2605,2874,233,41.613385086405735
2246,3620,41856,-1521,41847,41129,45.48908481570154,44.77018947768906,40.41244493780901,1277,1432,2050,48.551135648523086
-3139,645,40773,-2181,40923,41651,42.25885280061318,44.81892656490893,47.32496132584501,794,-1066,900,47.12776066102297
-3399,588,40015,2028,41249,41075,49.337203991087115,47.997127812777514,45.60112517592063,1448,187,-810,48.68236705759945
-1756,-3131,40715,-2747,40901,41308,41.86086929086561,49.82007479254047,44.289123846816395,353,723,-1174,41.977505901489955
-212,2102,40975,2943,40069,41532,47.1277887620938,44.167115866818015,46.9597497582317,3644,1204,3273,49.82275562137076
3007,-1709,41683,1591,40481,40064,44.29098055855536,49.11540119191533,43.349337245850364,2534,2912,-413,40.577946097890006
-3977,-253,41515,-2877,41462,41474,48.0727534382067,44.04756562152508,45.43315840963048,3871,-3884,-2404,44.82979682276147
-202,-3268,41240,1897,41127,41352,40.46978280649743,41.168787242901885,48.271540450872905,886,-210,2515,45.33283406277085
-1563,2400,41894,-997,40251,40884,49.64500938868561,47.54293066861957,48.14363398835986,1650,-1437,917,45.02440378152268
-3530,2520,40657,2248,41398,40324,42.16558718439652,41.750515176862955,49.03491469126905,3310,1867,890,46.431764858268664
3866,-3380,41366,3349,40635,41987,46.165606695763486,48.758814564878875,44.18557221118334,172,398,-596,43.791062541821056
3761,-2793,41318,-183,41723,40418,43.64681616760847,49.09514546466318,40.4129495586595,-2386,-2459,-629,43.225118837625956
643,3189,40399,783,40035,40412,42.51579468406462,49.740052527505426,44.97512882306406,1749,-2039,-3829,41.76673231230839
-3298,-998,40912,-3010,40699,41804,45.887695226995774,44.92429779699965,47.918062335072946,-2163,887,2434,45.26185998136407
3637,-3405,40886,-2256,41728,40486,40.85585493938751,49.5791293990933,48.4654995554895,185,-3500,-12,41.17019797958574
-346,1232,41505,2835,41288,41956,40.171285665602255,45.088901325952804,48.638987645568655,-3822,-381,128,41.89872140021453
3501,-1575,41887,-1899,41574,40175,42.12528572753816,49.894573127691835,40.47659971363786,3502,-2043,-3218,43.26669747203546
3589,-2906,41544,-214,40068,41333,41.93185968818391,41.93752833580804,45.9854432437944,-2047,-2712,2420,42.56912764556138
740,-3187,40047,-216,40959,41984,46.874725142669455,48.298010031079016,42.77378366339728,3828,-306,587,42.833919552965185
3448,-3643,40492,292,41581,40842,47.06181497881424,49.73745116269004,45.65459502950738,-3063,2689,726,42.255738511829435
-3614,2967,41735,-2828,41119,40361,41.503853960386785,44.00164026869128,42.60773959232551,1233,-587,-2124,40.536613472551906
-241,-1204,41284,752,41335,41888,48.825532878892794,45.15368721259061,44.187211760520086,1415,2529,212,43.678093059672804
3868,-1663,40498,-2208,40564,40624,46.14287425515939,47.92152081059706,47.83454827342166,216,-3929,3390,45.45179926904668
2262,2360,40087,-2250,40245,40144,46.73808777726658,40.42637859202497,47.999378612469435,-334,-2827,-1099,46.498330373594186
-258,-3478,41327,-1033,40805,40407,40.804487327277364,41.55896628852968,46.24713613622713,-3426,-3743,3427,43.18197991175973
-2339,3707,40260,2003,41066,41150,47.77702747169353,41.94781134552682,46.87124474395094,1767,-2934,2209,40.200247311661236
3835,-2220,41491,-982,40469,40626,41.391977064583365,46.223274903029,47.66175395566712,-1111,2923,-1061,45.81355117891051
3812,-2939,41160,2495,41946,40505,49.77286627462268,46.78162468600296,40.27344014456932,1429,-3944,1265,40.592316137390185
3241,-2678,41884,-733,41498,41071,42.379032367940646,47.983114037054776,41.40835858206602,966,-1395,3767,44.77229630617916
3559,1624,40906,3785,41171,41981,40.35681729187105,44.59212618350843,49.324746134302075,-1634,2947,-2334,44.396011483148435
997,-536,41484,2731,40761,40686,42.8582829259617,46.61036004459359,49.911932507738,3404,3163,3123,40.021894519000064
939,845,40962,-971,41664,40991,48.6682983279601,42.953748523934266,43.145548626948106,3652,967,1667,41.733163779878524
1289,-89,40405,-520,40146,41149,45.75628011317848,42.500451432478414,46.999012216266784,-3025,-1269,-2463,43.189052906868085
-3091,1010,41375,-470,41646,41655,46.00216027763243,40.25011494353459,45.68836167983689,1001,3372,236,48.23128957280021
3436,-2438,41348,2446,40552,40577,43.17768691349726,43.23802980556006,42.25020945679543,3677,-3865,-341,49.82016549267623
3193,-3130,40463,-1274,40827,40956,46.46197450055008,49.41367256728417,45.109728707706445,-661,-1189,-2392,42.852669809715806
-3387,736,40287,-2103,41542,41136,44.72009779630843,46.05237919995007,49.49064048763307,-2225,-2441,-2886,42.947725164364975
-3445,3020,41492,-1844,41789,40995,48.26015428300359,48.72510671772689,49.131538721269976,-2049,-779,1788,43.35366619709602
2428,1181,40987,3991,41816,41789,49.60542617788631,40.98179378413233,42.39755098641683,2909,-2082,1682,48.80195487557501
-3075,3801,41849,400,41326,41557,45.898215231420075,44.651180782847185,46.64460197415714,103,-1406,-1099,41.54128838339296
3853,3826,41554,2298,40915,41921,47.81906075055999,49.82186002884054,43.13234738486182,-1470,-3570,-2241,41.795895902394804
905,-3267,41476,-96,40361,40342,45.50734378322861,45.886132590259265,43.4122824097326,519,-2436,-3719,45.56775497438367
-646,2862,40268,-3697,40261,40917,41.976194246834446,40.995425241878515,42.29172829801685,1756,2813,-2504,47.159424972647884
1404,-3666,41129,3432,40485,41630,49.641430562862425,43.30923987071945,46.46916174391409,-382,3088,1914,40.46715349961122
-2089,1098,41482,-1160,40992,40946,40.83596361060782,45.962551117649184,44.44299327828736,-3493,-983,-3510,43.38493442300166
-3133,3175,40198,1608,40041,41741,42.82513985682373,49.44369923052956,48.41371196242911,-2025,-1087,2248,41.416314224274
2853,2677,41839,-61,41807,40117,41.54417960781691,44.44833592148113,41.423484998453965,-1574,-1052,3514,41.76471054264614
-16,163,40213,-742,41908,41548,42.78914126244738,47.66162753495226,42.383524416796575,3473,84,627,46.13270251359866
1828,1345,41428,1406,41141,41605,41.043162820527364,46.01921148939225,44.461980007000236,-3269,787,-177,40.46892380785323
3732,1230,40408,-1351,41845,41872,44.462417843699555,44.08776134351085,47.716814926505144,-1973,1374,-1939,47.22064714592141
1435,2181,40006,-3482,40459,40266,47.77045050547148,44.300516907732295,41.915859842522025,-3312,-898,1066,41.060797358383105
-3254,1824,40556,-2049,41416,40643,40.28421691426598,46.21970739656043,48.710171975172926,2933,-1971,-3706,43.68569210261475
-1498,2120,40027,-2642,40232,41035,47.908606153720605,45.19736885801544,40.52384987538021,-1280,1250,-3307,42.082269305945346
-3983,-1675,40195,-2460,41172,40462,41.42215307215752,41.57914215075659,47.97597394605651,-5,-3447,3170,44.48198539582036
-2574,1907,40590,-1023,41160,40255,40.70262720364809,42.8961487372081,41.032418348171625,-2838,3172,547,44.340064429045185
1252,-1931,41745,1731,41248,41616,46.29472422361483,49.32262797162881,42.775243255302634,-2115,-2178,-1341,41.600655862461224
-3515,3173,41945,1883,41735,40207,42.93056603158947,44.00977262311917,46.72691781602021,-1190,-1310,-3368,46.20641463615804
1951,-2568,41293,778,40306,41535,47.07155655416747,45.58349968889421,43.71365703129643,3003,-2413,-90,45.16047444413889
-102,3426,41268,1055,40640,40742,49.632766864545886,45.00231204203939,40.74876363474047,2933,267,123,44.95463677536443
24,2375,40951,2364,41378,40750,42.88994254083927,49.31539786952664,46.13177417502371,-2668,2995,-1797,41.38075028893552
3031,2715,40052,-152,40507,41585,47.81538677087189,42.31826324183397,41.289325785682685,-3240,416,3434,47.40397109698665
-3498,284,40566,-585,40550,40974,46.46060112005715,47.22887714152982,42.12136691723343,-1905,-2294,-1093,41.855478276277594
-3701,-3650,41434,-3201,41649,40595,44.31048569627465,44.39312711429975,46.52969371189242,-1049,-3007,-2638,41.97713578610806
-2500,-3615,41125,-2372,40561,40181,48.85267255759146,43.92879574126981,41.80163800194176,2563,-1235,-884,42.958858324950974
-289,-409,41985,3779,40008,41760,40.276756522672194,41.306934968820094,48.807089171627794,-3668,-3672,969,47.056244821080895
-510,3180,40333,410,40401,40255,41.31968637546618,47.023695331767506,45.06154239835073,1401,-2198,-3198,45.24683394307135
353,-3820,41697,-2634,40424,41675,42.999856199929624,45.88309546885771,47.24061600597741,3303,-2693,256,42.96493013001047
1740,-3998,41880,-3287,40040,40989,44.20888102802806,44.59315071472703,46.29625005268326,977,-1270,3317,49.710272407346984
-438,-1532,41341,-298,40566,41246,49.21457227815368,46.27041516434952,45.433808763287004,-603,-408,3463,47.61292881724292
3579,-136,40556,3992,41675,41994,46.63863031036208,44.712413450331425,42.76582906512874,-382,1853,2486,42.43184515819183
-1237,-3663,40472,3346,40957,40677,46.57917213850958,43.583929850682246,49.39061251356714,-1381,-3620,3999,42.92004530772269
62,-3139,41781,-451,40061,40962,44.13202110863682,49.22935410421293,42.4076390470963,3025,-995,3584,47.3116681225237
-1766,1940,41616,3206,41142,41832,41.448064878584155,42.50937409021785,41.1394465033976,-204,-3476,899,43.70752086851125
837,3745,41127,-1416,40160,41555,43.257241374315086,47.244133452484796,42.72007815293227,3013,3587,-677,47.024706551507535
1885,1395,40427,-225,40253,40020,42.27874613296226,46.12289963922662,47.30551816131447,-2968,-1424,-2940,44.406203277778545
3252,2756,40146,1120,40883,40925,45.622280420636464,41.41273941102596,44.226831277905355,707,-500,1811,41.097805636240686
-3150,1854,41724,2015,40519,41353,47.83709908565405,44.532276687689965,44.18244237226567,-3860,3896,-1241,47.36921422731246
-2820,-2293,40350,1012,41346,40932,45.948976393733446,46.59448790597089,42.42947675407529,-2605,-983,3666,43.7969132796644
-393,-728,40543,-1159,41318,41185,40.90292815342507,42.243082144002855,43.10133465954688,-1336,3427,-777,46.55066594462731
-3572,-870,41338,1892,41085,40722,41.304364900334804,49.845034462112615,44.549692209475346,-424,-3004,1551,47.934045242102414
-1042,-1756,40018,3380,41557,41296,44.13140769126625,48.275017235444494,49.383093792041876,1653,-292,1250,44.88378593787468
-3416,-3843,41430,2866,41966,41259,42.293745035688794,42.06270776734317,49.177735425963874,1016,2054,-2401,45.49977578354021
1382,1287,40331,3186,40750,40389,42.712770534674135,43.025178901875094,46.0734379450528,-808,-315,1955,44.62503555909377
-1835,-1860,41910,-3460,41911,41459,42.7599578947182,41.603186036807976,49.812353229040625,3062,-802,-1173,49.85591530448185
1235,-128,40334,3977,41313,40702,43.64895324881835,42.26173886976225,48.279214133727336,3054,2317,-1299,43.04413014519916
-418,3798,40109,-3142,41933,41933,48.58549166821942,47.58689493346697,41.268536480560286,1142,-2537,1524,48.28493020037165
2233,1870,41992,2636,41580,41967,46.6821796045519,42.809854814032725,47.982382565161494,3725,-1837,-591,43.22157576530691
1632,2811,40674,-1561,41260,40443,41.43704723046049,43.444663150185654,43.560083400798256,-3870,1173,1870,42.89798470670947
-375,-2285,40990,-1792,41597,40468,40.27274978742351,47.214910654773455,47.03872384814933,-911,3850,3716,40.63882702799708
-812,-1410,40350,838,41516,41757,45.19665976802409,48.729663586990696,43.14411454512474,482,-945,-2347,43.617224747246844
1093,78,41968,1490,40688,40994,44.939100360586565,42.239495210657964,44.77157144643842,1106,484,-3876,44.81289814263335
3092,-2537,40560,2273,41948,40354,48.59599904942468,45.876289430126604,42.79260739751567,3155,-1589,-3793,42.41233555564501
1429,2949,40891,944,41296,40738,47.07335547982008,46.76812462060243,48.57256834799234,-1203,153,-3320,48.91803221811011
469,-2677,40954,2074,40134,40365,45.82814708472807,49.52064373580947,40.544049755028915,3254,1752,-1418,49.181400112249875
3312,2651,40317,552,40530,40605,47.756903772177424,49.95147588319239,47.30118418780012,3185,-2294,593,48.56026556965063
52,1523,40111,3680,40397,40953,44.51313923516448,46.51697369623132,40.09929555028159,-2486,-1108,-2802,48.061126597433095
1757,1524,41135,1613,40308,41750,44.86550217134561,45.085318941947854,46.7511063144114,-1375,268,-531,47.338632996928865
343,-211,41490,27,40307,41393,48.347492408726225,40.20562770848486,49.06165257283551,2656,-1398,-3972,44.362831350476604
-3822,-2458,40111,1155,40846,41003,42.911792842158064,45.39028529086159,48.661619488735404,-3670,-2150,925,46.60842279859496
-1942,2286,41093,347,40957,41627,41.21977248129935,41.10546424205113,44.239916691659744,916,-128,1616,43.61211735830193
-146,-2193,41937,-273,40497,40326,46.10590008600138,42.26189964674909,44.74779016277493,3451,2046,-2931,40.2858733962779
1369,96,41313,3409,41835,40427,45.5764822204971,44.815434390250985,48.36830018457229,-241,3492,-3226,47.8228348063069
-730,1415,41712,3613,40703,41988,40.248667213626604,44.84217311149873,45.50897037445684,-658,-3586,-991,46.81765689940489
2873,-3769,40012,992,40123,40683,41.6480137546436,41.594173540291806,47.14094693550342,1246,-3897,719,43.08474317046121
-530,-157,40169,3998,40919,40854,45.289139505691544,49.38969841818376,45.520936782944645,-3098,-3958,1470,43.88342392006146
840,3186,41773,-1891,40017,41279,49.90399032575305,47.845012933776296,40.516708849792,-3480,-1284,-2028,47.47403586725192
2243,3784,40665,498,41383,40548,47.85484135653523,46.61673455819316,44.53533583885146,-604,-1664,1601,47.98977964632982
-2310,-3197,41879,3505,41742,40908,46.35137258856293,49.97392307024457,47.8816466653719,2853,366,2843,43.44763314762064
-2411,-3865,40208,149,40777,41304,44.2429430002981,46.66925993914915,42.84231215402799,1636,938,537,41.57766107690465
703,3114,41804,-1146,41833,40990,45.771299620443116,43.026174533592936,49.19298837844671,2949,-73,-10,43.273543669298846
1611,2669,40763,-3220,40654,40832,43.776186174211595,44.010787183102444,40.56719295145835,-3378,2569,-1815,46.82342620270225
-25,-3286,40032,2257,40950,41064,41.62813216911528,47.453191818696816,41.98047364317158,2469,2311,80,47.90705529352748
-3603,-3909,40102,405,40816,40970,45.6876816883006,43.199762284986335,44.95082277692329,2330,2038,-1298,42.58004670980202
1793,-3722,40274,-1178,41119,40490,45.7265579762331,41.88713483673203,46.74158039625097,2303,3839,-101,43.39126251224604
-852,3254,40338,-2319,41224,40725,41.98297338632749,41.74537129455706,40.72808392152905,-3442,-3503,-3072,42.480898066226
821,3698,40239,-755,41716,41817,42.11764430169533,47.62230248895685,41.64728502601641,179,2685,-1657,45.53768268444606
831,1675,40398,1444,41397,41385,46.20386896863446,46.07513761540793,41.0563656023094,-360,3041,-3997,41.82157731046964
-2119,3206,40883,1467,41769,41079,41.20624616643114,46.625412822058635,49.89385204253613,2101,3532,-101,45.87475942959895
-3107,-1789,40539,-2734,40685,40362,42.54166083699238,42.75998799830717,43.298745992030995,-3510,-1998,-2879,47.66523605240111
-1080,-1322,40178,-2643,41231,41690,42.601250732724246,43.74494894193161,49.798062431523434,-3668,-1055,-2573,43.17365998078293
3907,1800,40009,2813,40979,41684,46.41015126728487,44.46596893937092,49.615969972938736,1672,-399,-1765,41.09974960094319
-2137,3363,41635,-2379,40741,40766,46.62996132024876,41.185217332649735,43.62537014061277,396,-774,-362,46.26710781672666
2532,160,40076,1484,40060,41394,40.75938213012767,47.520354319113714,45.3126036993387,-2274,3134,-2870,46.80938374923146
-1945,271,40419,1992,41204,41855,47.47311078690655,48.00770468246045,44.42029375440446,1074,2941,734,49.354523447076666
-1295,931,41554,-62,41125,41766,45.28317527361187,49.135748800242396,40.54240471392456,-3509,529,-1599,49.15290970606243
602,-2753,40128,-3312,41469,41417,49.22431275167199,49.049903300774105,46.85302662278847,363,-2678,1772,41.253573582357454
-2934,3177,40066,2943,40967,41124,42.57192785528796,40.06253026931817,44.099405664937315,-525,2632,3936,46.09505549592152
3120,1371,40840,-3525,40614,40877,41.11449961834457,40.669619823658216,45.11153980457726,2358,-765,3699,47.20226423886566
-175,2750,41969,-353,40237,41913,40.96695542485924,42.98335461542791,41.84693154657199,-2244,58,2076,43.06069589861061
-1095,-2378,41816,25,41564,40902,43.511518595779705,47.62666518836826,48.90203370838155,-2059,604,3460,44.81370512787522
3210,2577,41593,-2007,41594,40355,49.20869303468873,40.49042253675905,49.46825937069346,-386,681,2395,44.22182606515071
1823,3437,41144,1857,40626,40034,46.5475559917049,41.28854042957646,42.26085973557086,-211,3369,497,49.60029560390932
-2778,2686,41247,-1298,40771,40247,42.01124162455875,49.32749647495062,40.984534406304206,2913,-724,-3861,40.38311676404272
893,3001,41961,3756,41596,41651,42.360666878976275,44.60742556973556,47.09961476744719,2794,1077,3572,41.146461930622806
-3082,415,40367,-1731,41386,41664,47.22105358835431,46.415047571474474,46.82593670612864,1761,-3006,-1331,41.07283095014874
1121,2533,40738,2659,41573,40746,48.14766564599336,45.24759122532405,41.980167224697944,1925,789,3163,48.31768129841958
900,-3833,41919,-806,40345,41185,40.08155494222457,49.445665175068825,48.17122692822517,-1732,-2551,-1882,49.684916456263295
3320,-2791,41178,1019,41967,40122,44.22046870741515,40.666209589464884,47.66943221453943,-1636,-2688,-733,41.04373787216261
2335,-3716,41414,1765,41526,40000,41.16706380424714,47.09153559080417,46.81784552254244,1149,-1306,969,49.37757651991778
21,2822,41167,3269,40207,40346,45.02051330252844,44.34474883334109,43.34346071386421,3414,-209,-2145,49.42677570776857
770,-1442,40167,-1436,40656,41769,43.72339213086826,41.77174959636664,43.531968147619494,745,3572,762,41.754771388856824
-3194,-2168,40378,203,41405,40991,42.29127425845557,49.82172623483872,48.857151335721156,450,1562,-3153,46.18862823852552
-18,-1650,40614,463,41856,40728,40.602897263378864,43.69571070203071,45.002631931695156,1489,-3735,-1131,42.12775617698896
-1763,-2492,40427,-2022,40683,41907,42.473226373756525,42.34919971226629,44.79700917184215,2091,2614,321,49.943479524831346
-3257,1646,40023,-2642,40172,41511,48.31513250724832,48.15625887836311,43.2952562970314,-2466,332,-599,43.77754361212435
2387,1373,40098,-3710,40384,41815,47.843671244234294,46.60231483867719,46.400902236730836,3305,-3773,-3142,46.33660889631359
3993,2362,40135,-3135,40801,41524,40.82705111198339,40.83205969007889,46.26811802538218,1816,2299,-1259,48.39980735646314
2110,2785,40368,-2861,41266,40046,42.11937041783778,45.08071734368692,43.40356474018246,2385,-2261,-3666,40.91888235932469
1107,1677,41151,-528,41554,40698,40.19253707423972,44.88239706616942,47.929689730334744,-345,-2796,-640,42.16559242221849
-3575,1853,41957,-1345,41024,41168,44.291110608171664,47.206435856964404,43.408369414914645,36,-2072,-3259,43.61429801514564
-2219,2400,40173,501,41814,40064,45.93985461921615,41.50136045174213,46.56166701340259,-3632,869,2822,49.78129264299808
1258,-3938,40271,1603,40419,40837,43.78741370428602,46.99571590756318,41.8998316939323,2647,-2981,2852,41.399820254529146
739,-1549,40157,2774,40705,41034,49.56182168062493,42.13574604938257,44.44347530236874,-966,-1621,1113,46.36997041127093
-1407,277,40401,-518,41697,41422,41.102909118956546,44.15795810419101,49.71583714054909,3764,680,-3634,49.86633356500009
-3132,2095,41017,-1313,41027,40189,48.10184740256357,44.004927610623966,48.939705447466714,1144,-3196,1217,41.97023877794022
2505,1672,41489,-1011,41899,41416,41.87267719528643,40.769078613911745,41.6541732061459,2718,3594,-1920,45.054077839340685
946,2462,41302,-633,40598,41772,46.40281596261218,46.92892859879786,43.78066897171654,3455,-1194,1056,42.1928879924909
-986,3750,40120,-749,40965,40214,47.476814475418166,48.363146694014986,41.371213771881166,3697,-3804,3984,41.63630305085018
-265,-3431,40506,-3846,41303,41892,41.46237278891472,44.5793438634251,45.178465941917665,-3581,3720,2533,40.28426775888112
355,3986,40666,-1239,40388,40443,43.21537259817621,41.53769021179649,41.960525698864714,-2670,-2463,1826,41.460768585377714
13,790,41758,274,40458,40457,48.322179696152936,49.6863748305742,47.4566565265495,3515,-1004,-3572,44.50449137219816
-687,-2852,41964,-3329,41761,40742,43.15312584160526,42.54061506517983,47.81655811733858,-100,-2046,2281,46.74940108447264
441,3437,40006,-462,41804,41510,49.97399406680651,40.181064133102375,41.081772254132055,-2669,2594,3144,49.67101700517199
-2651,2631,40843,3008,41323,41950,43.94893243466775,48.0686460075714,45.46955706477781,3498,-3157,-2711,40.97507551441463
3163,-2281,40527,1717,40923,40675,48.904887165620124,48.192235116959026,48.40658116606304,2345,1116,1530,45.53622658068102
-36,-3130,41730,-3518,41904,40891,43.95944412193703,45.29827500833198,47.799814395268484,-1350,-1140,1909,40.538435262700276
-2243,1796,40645,-3167,40813,40858,40.26865672460494,49.32682111097389,49.60468881204678,2374,3860,-1681,49.67403475527315
3452,2044,40842,-3055,40520,41543,41.793701027574016,46.38125291587418,45.36942630511506,1624,-2061,176,42.80610342821001
896,2696,41375,-2234,40346,41021,41.1609567019244,43.758840309793705,45.44054786555471,-1598,2316,-938,41.349512931623444
-2223,2944,40567,-27,41180,40757,47.26299587350465,40.595330578659876,47.424049092693906,1906,1700,-573,49.45219256376281
-2799,-2295,41988,2340,40742,41449,48.685553209757884,41.03430903803104,46.404929220922355,-3946,2460,3032,46.15023329640173
3810,-3586,40378,-3067,41221,40494,47.3799742116885,41.1256222155415,43.66467606493632,982,1878,2041,46.57773211869709
3499,-1525,40996,-1030,40584,40486,42.674455150529276,49.03961602514353,42.816264312490375,-3054,-3315,-782,41.06114208194141
3788,-2556,40831,-3890,41849,41281,42.779695604000885,47.086374117664384,42.84463296205391,-2667,-3153,-1851,43.02993120837331
-3673,2165,40560,642,41249,41953,40.59464314189687,40.930555218454465,47.8598454029143,-1504,-1476,-2736,49.11536270900399
-3224,-1979,41119,574,41760,41254,40.432154460630315,43.318749119678436,40.27889322271485,-693,-1871,-1684,43.02631810786647
2702,4,40210,-2537,41851,40764,44.083390305033205,48.69757722539312,45.22770621961764,1205,1911,-1282,48.97918723738502
-1073,2690,40885,-3862,40317,40774,48.21843197034954,47.29227159780845,46.609158752804866,-920,427,-3524,49.374646708819014
-2782,-2175,40796,623,40087,41807,42.010506222305665,40.5826637611041,49.20140537211957,1834,2846,145,48.326890226445336
3665,-3663,40788,3004,40250,41336,49.69456110004723,48.804732246880235,49.80882613162668,-3189,3288,-28,45.39231857196563
-460,3345,41321,2518,40049,41849,40.636762407918866,42.47955818155841,41.301990085629264,737,-3476,2588,45.422396703669065
-2762,811,40427,1612,41798,41781,47.32010946373387,49.14856315402807,41.29258686183843,3052,-1004,2881,45.512791965033074
511,-3819,41228,-2187,40588,40967,43.97444481591608,46.874301193763905,48.82490630100962,-1439,3847,2055,49.44260054815989
-754,-1339,41635,-1513,40109,41130,43.216114295015906,46.26918146718592,48.92289601497659,2971,3067,-2334,41.76238094316402
3712,-3972,40952,2250,40956,40960,43.79618286558727,44.83110351232074,40.145515967389656,1758,-3128,-758,48.98178823065825
3162,-1237,41099,1058,40062,41375,43.42747464655912,49.89157957318417,47.578736706396654,-3305,2991,2203,46.55318150790044
5,416,40156,-2690,41609,41470,41.92081691761546,49.646364026008044,49.78303806548108,-2819,1396,-1601,44.188120563055946
-3016,1103,40675,3487,41449,40735,45.02893193274594,48.18891838980179,42.82087686274511,-3089,2430,2614,44.46658234436056
-699,-1881,40604,2121,40257,41752,46.851294385985206,41.19648448615356,42.10732146384014,3090,-1370,-881,43.505891184316894
-2641,3483,40212,1403,40355,40423,41.56491918866994,45.28692357353554,48.04451378879399,604,-2840,814,48.89383492866045
3395,2670,40640,-3369,40211,40224,46.87825304998317,40.78174788330281,47.07420325511884,-3570,-1093,-525,40.00535251966396
1471,3677,41284,1775,41890,41990,49.82976594823665,44.35169354811579,47.7461729788988,2808,491,-3066,41.653218268689685
-438,2029,40882,3731,40464,40856,49.66101307694507,48.163406110948024,40.93560319939544,1016,1856,-2097,46.32554889000029
-2573,-3523,40497,-876,40136,40902,43.259171256769854,43.00992959039894,46.17519171211177,1473,-1515,-907,44.88879237685274
-485,-2532,41198,350,40871,41727,49.89228262755608,44.52207307497352,45.7918905902552,93,7,-171,49.26022657661154
209,-326,40108,-2446,41504,40848,44.9761777813116,43.49380685265002,40.270562728611374,-2370,-3650,3744,47.3678868743363
-2333,-3558,40808,-143,40929,41406,46.86474296562204,44.777987795629635,48.08936967734496,1839,2179,2004,40.726280338741056
2965,2416,41813,-3983,40171,40131,44.837914586788315,49.99571628117512,48.15831484185619,-1109,-3826,-1344,48.49663664613002
3932,2831,41590,-507,40685,41395,47.65565971802915,46.09296120188014,46.62154369808255,-1247,3336,-356,43.57575035391233
2846,2981,41324,-3603,40307,41891,46.89716674614152,47.39597709409832,48.62403464089006,-1068,32,2314,42.65836791653075
1902,-995,40064,2652,40309,41574,41.85159587227204,45.80432663473772,46.76333027749118,835,-3950,1494,41.89812128356876
-3093,-205,41899,-2378,40560,41394,45.840283091507956,47.96882360343065,47.31465891053721,164,-1442,3603,42.25588125625447
2751,1809,41849,2741,40424,41008,42.6130281719463,44.13420127003124,41.90021903667953,1488,-538,-3561,45.02832938809381
-301,-2147,40560,3559,40331,41533,49.28702044631507,44.35479168478545,46.35345187579587,-1841,-872,2715,40.01872311031057
-1848,1812,41877,2660,41145,40404,44.15824112894134,43.20700864082686,40.63696629983579,-2232,1766,505,47.96908280439444
3439,104,41795,377,40410,41720,48.52339674066961,43.76446323616426,47.210295968250186,-2176,-408,-1218,44.49491709253869
-140,-452,40954,-2639,40332,40345,46.565410907765354,44.02442565296822,46.761615885364826,781,278,-977,49.2720098383125
-1247,2973,40240,2515,41493,40384,49.28765857802565,45.84633219286019,48.99244196206565,1352,-1239,71,40.3394219264279
-3464,-256,41650,-3384,41040,41222,43.58251519943496,40.47820241036548,46.42592261142525,-3003,876,684,44.234279042815565
3261,2206,40990,1644,41854,41160,42.55873312700783,45.35937347115562,44.61953433291758,-2086,1482,-208,40.396326648604685
3965,2296,41783,-1205,41391,41588,43.95119593260239,49.31235641937875,47.244432520430635,3886,-2119,-2122,48.62833695046817
959,-943,40266,-2774,41961,40874,46.40524939171983,47.585976096726,49.19397752811076,1450,-581,-766,45.47683606629498
1223,2629,41161,-351,41296,40246,45.5190649088097,46.23515399765238,48.63480643923133,-2885,-1325,-3311,45.568769121123594
3007,2772,41721,-881,41859,41242,40.448281782512964,47.97433206261544,40.837665921013205,232,-503,1342,46.08042452982471
-1962,-892,41829,657,41074,40886,45.90143973004073,43.81044964427308,43.2661414085307,2702,2472,2305,49.76396946728339
-1779,1113,40156,3686,40657,41487,47.18212531224188,44.35995070371423,41.21587702847612,-867,-1342,-2030,49.27980150384013
2022,3748,40119,96,40683,41838,46.21542849147454,47.133776909134106,43.71703189651377,-1853,-1249,3229,44.812626229656104
-3692,-1360,40835,2049,41976,40674,47.022101840778156,41.22074218763615,48.35139129069414,-3212,-3801,-1055,45.35610433302001
2580,756,41785,2089,41839,41928,40.68896476964943,48.5287102037426,42.76639218131263,1858,-3405,-989,47.793201992235616
18,-2526,40887,180,41581,41611,48.030488926845884,47.01319490777355,43.44691791055756,-469,-2902,922,49.12575713756204
-2568,-1044,40713,-2565,41695,41398,45.26422479195006,49.45437516741566,48.64077193509176,3798,-3206,3483,49.34353982179042
-1957,1771,40793,-3288,41465,40971,44.94046994259343,46.783934344648415,45.92153733446142,2926,3852,2112,42.06425656326521
-57,-2852,40588,-2581,41709,41984,46.004470306154886,40.40068363910234,42.5890001898449,283,646,-3555,40.798526264644444
937,1758,40702,2176,41512,41295,42.92613167696117,48.821496729075136,48.31204855016612,-3541,2139,-1673,42.962732495826444
-1747,-1128,40890,1990,41511,41845,48.10790986446116,40.09773368126974,43.76187024109126,-1284,3013,-1822,40.015474221283
-2135,-966,41431,-426,41886,40329,41.85222278406861,43.94108976910879,43.68009793731482,1365,-2516,2078,43.43547723478905
-3450,-161,41904,3132,40244,40832,47.48969579046594,46.45610791551995,48.215929046270944,-1335,-2552,1530,47.47577739051299
3032,1057,41530,486,41861,40048,49.30897211734513,46.95451756153321,41.66073349932644,-2828,30,-3174,49.7188910790379
135,-3983,41041,351,40880,41324,42.53823099518595,48.76275878504976,40.31878130496263,-3007,-3293,-3648,49.63110440364197
3395,-3724,41930,-3498,41032,41021,44.97200094159824,42.04655153138849,43.393766566614495,3338,1437,-675,40.11988023421855
3349,1056,41752,-2852,41956,40642,44.22894684911435,47.98140124178617,40.18701059979838,3509,2248,-2755,47.23371385632211
524,-527,40247,-2071,40674,40925,40.05955178466124,43.941313618966035,44.652532117188855,-3394,-1822,1806,47.01881712876948
272,-3393,40580,-3869,40781,41022,48.09151573888729,48.71479790836367,48.65820170783053,1250,836,1584,46.510831721448284
-2605,-3915,41108,-900,41586,40625,49.19525741577294,42.986662030349805,46.71094152061328,2800,-1350,648,49.56870819292624
1359,-1659,40669,3101,40692,40897,48.780189888339706,43.29683569133316,41.46693309263727,-1505,1384,-1667,47.46456264821274
2015,3243,40678,2567,40624,40472,42.90676701111526,49.105497346631196,44.07197014775484,-1994,-877,771,42.77783311253037
-2727,-2415,40998,-1311,41435,41827,43.311815807060995,48.52782378579845,45.55950795949764,-3607,-581,-573,40.33264466498477
3481,1288,41872,1341,41687,40795,49.55526155122346,46.80372567888108,41.44926472701476,3165,1587,3416,45.425816940886506
-2857,-1770,40891,548,41087,40643,49.55141420786375,40.26188549791643,43.08863313693008,-2056,-3286,493,48.25083878440068
-2913,3963,41688,-864,41066,40344,44.99936723981201,45.19305928540124,46.361613842331195,-896,976,429,48.325237303312825
-1637,3036,41530,-3805,41788,40919,40.87215078451501,46.546990957037906,49.857137567602834,1750,-3351,-3081,48.01476413027428
-1484,3442,41844,3852,41083,40002,45.11937547868333,40.18679715856085,43.271450092277576,-893,664,890,49.62231618410369
-2077,-2718,40107,-613,40491,41176,48.75193469734929,43.5851397867547,48.26804722065667,2555,1892,3314,41.04467835204837
3940,420,41072,2305,41813,41974,49.67981227600242,47.9569093954574,42.36667965296375,3552,575,2681,42.64659303355687
3030,2815,41790,1697,40267,40301,46.98461252277454,42.577699999717034,48.46260831695686,-2503,206,1919,48.37765888900331
-1061,-439,40132,-2003,40343,40248,40.50268287960352,48.4466918914172,49.21184154742077,-63,2536,-2033,43.67399213076006
2194,1607,41515,-1721,41331,40028,48.90464687199951,44.72864402375309,40.37890276449038,2603,1860,2444,41.48797033085135
-2518,3152,40934,-1755,41048,41203,49.86012120707005,45.916631366652304,44.91170904988431,-820,284,2625,47.775433982539425
-1772,2426,40410,-2161,41210,40458,48.029781708829915,43.742761190374246,40.56024309563586,1990,2214,1034,40.02359656630686
-1140,291,41351,-102,40112,41707,40.7837972131725,47.26473849549417,41.321608713487564,-1717,-1058,328,41.912482521350604
2742,1081,40215,-919,40673,41006,45.004863471338254,45.45745806625471,45.01129731611874,877,-3650,3646,42.33038515583534
1203,-1801,40690,-3572,41058,40470,42.118034855174436,40.24288106471332,44.86537041294744,-3305,-2733,3114,46.75185554663162
317,-3460,41818,690,41290,41594,46.89863421291022,40.421730101739634,41.048385872514004,3637,-2610,695,41.006801110296166
503,-719,41893,2892,40413,40150,47.69371243485991,46.64984931848373,47.8107554086781,-3810,1613,-2440,48.78919564498554
-2415,-812,40041,-225,41594,40671,46.274977766753196,48.19326159133696,47.35256813971052,1228,1616,-2057,40.39414589222597
1730,-540,41783,-3611,40471,41180,42.619775235393085,44.098380804594754,48.19452595855027,3038,3495,1978,44.988432930720315
-2206,1464,40993,2983,41907,40107,41.85832728923183,40.73250445363638,49.37681700552872,-3014,-1912,1121,48.726562927459014
-2609,1744,41555,-2637,40846,40787,40.04559386261307,43.8282519228928,46.11122604542052,2852,-962,2990,42.61549338839902
1244,2768,41625,1554,41462,40960,45.22098674604241,42.760406661432356,49.69625053174423,-3915,3670,-566,45.69664312994988
-3496,-1948,40471,3456,41294,40135,42.53953411027774,41.126914682229135,49.94016634152577,2054,-1870,1906,44.65490891945041
-1673,807,41676,615,40658,40857,49.05303258501107,47.95771527898988,49.11881318681404,1387,-883,-1782,49.36534123481364
-3817,-816,40851,1609,41289,41942,40.28920979911411,48.88468332561967,47.17526501553155,1142,1199,-577,46.9339750223469
1679,3420,41041,-2715,41812,41693,47.73857040853697,49.845939634750195,43.353847018711484,-2068,-275,3604,42.20171870240962
-2994,-618,40027,1413,41395,40614,49.23421390563503,43.491470402741626,42.48980459239338,2814,1985,-2800,46.39234394547523
1148,-760,41675,3545,40750,41996,40.91323601296953,49.21725045773087,47.59139378621091,1069,1121,-2183,40.118710134851476
-3131,-1490,41713,3803,40636,41974,48.45762863183847,44.08121380046831,41.5702038252921,1691,-2539,2800,47.97209244440709
951,-2947,40757,-1098,41938,41096,47.875844557242814,48.383855059179055,41.801349150507605,2611,-708,3242,42.251788729411366
1097,-1629,41661,-132,41116,40336,43.81183298794494,48.9860052314525,42.61589977373102,-2240,1321,1117,46.50701564718046
1170,1493,41802,-789,40412,40769,49.46371645280338,40.79984308759283,47.453137151162736,-741,573,2359,40.22596662169198
3058,2572,41714,-3953,40667,40722,41.79245841284095,44.558819048176915,46.3551189694797,-265,3413,-3853,42.805063082567194
3869,2404,41422,-3543,41832,40593,43.7255257805157,46.24125392966117,45.878416244350205,-1772,2257,-2468,44.66655938045546
3629,-1709,41980,-3148,40766,40408,49.390973096298175,40.71339582774388,43.397530107168755,1157,-2490,2026,49.7534694292397
2598,1812,41060,3595,41161,40599,41.00984227124977,49.287967064145754,41.268251812131545,853,-2028,-2123,43.191899984254114
2796,-1215,41924,3038,40415,40152,46.01472526744107,45.40862036334306,47.0820633790657,-1034,-2656,1379,41.752554340128576
-1035,2525,41804,-586,41795,41958,44.44662289008419,48.73484064990579,43.6875672020006,-1485,951,-2273,49.907764863988
-2349,55,41171,-1912,41050,41119,49.25031653917574,42.85688116019682,42.71958081005508,-3705,2291,3775,41.87641300306166
1626,740,40791,-2768,41210,41609,48.824749795166795,42.871533850389,48.148507828500385,3128,2911,283,45.27341664630716
2266,-3020,41354,1838,40898,41264,46.29351638786709,43.484068864377605,45.59157426062678,-1536,-625,-2023,44.82399663008126
-3334,2684,41919,-1742,41504,41874,43.973428040644826,42.47553343301345,43.3440738754344,2923,3438,-1441,41.24774775145527
2214,-1996,40234,3862,41268,41120,40.255804719168395,42.52321730342785,43.5389621703477,487,3286,-2558,42.7017572288139
2396,-361,40890,3507,40873,41688,40.36489865098702,43.03897303585118,42.44994520169411,3355,3179,-3971,43.70441974762068
3149,1065,40538,833,40441,40047,40.59355652169444,45.03890918401789,47.44149940420624,-424,-774,3180,49.06853604850245
-490,-686,41285,-2240,41345,40329,42.04869831279616,43.593893459401514,41.77168447746432,2935,-3186,-3786,48.193079476880484
-2643,-2251,41508,3429,41072,41230,49.83371697225897,42.88196064658755,45.13096980086625,2693,-2190,1858,46.21528192807951
-2614,-1845,41367,-3486,41267,40884,47.42490716847438,41.13329937619838,47.91324241470988,-1629,-2901,-3215,46.718368510482414
-1957,-2938,40179,1263,41348,40713,47.40068371823661,42.9247009546178,42.21125936376243,-2557,-474,1193,45.429101148048915
-3635,-1203,40684,237,41926,40001,41.05727199802435,49.394473908750875,41.743205340061735,-3240,3287,1599,48.9931143372858
-3862,2198,41610,-988,40756,41662,49.32885195518965,42.23563049104875,45.730756694353964,-765,2104,-1381,49.10142595395785
-1750,2150,41582,-952,40296,40571,44.082953974612685,46.746262463921745,40.56699690261451,1409,-1681,475,46.77913832431244
-1280,465,40435,40,40233,40830,47.07121920750907,41.36041756082409,41.961114261162805,-1143,117,-826,40.510218690142835
416,-2920,40873,898,40659,41768,42.88058711233533,47.17004730382,41.440575912642636,-3212,-235,-1271,49.503819218482946
-50,-670,40319,2662,41479,40091,44.81273933200027,44.38418460729792,42.45678271010945,-1062,1162,3277,40.19263068649849
2763,2802,41572,1140,40936,41632,48.66030459603953,48.772132288839714,41.04524005388349,539,-492,3532,46.33350374912338
-2977,-2223,40736,-2284,41571,41409,46.17963436610284,47.80715369770544,49.606835077547174,-113,-3455,-105,42.931895263479
-2828,-3671,41197,-3847,40128,40298,42.446553110622524,49.70911263564588,49.87445520326738,-1078,3985,748,47.00506849913843
631,2257,40322,-1270,41364,40242,47.18967422895438,47.672899207407745,46.35318878763923,385,1430,3786,49.808736825827154
-3566,979,40199,3606,40292,40266,49.53784835803995,49.091270452679545,47.50812330506196,1254,-57,1163,43.29422053904063
2018,1081,40974,-2131,41285,40684,48.64588896968131,43.17480728333928,42.23719006094248,3200,-3292,-3782,47.88856377778048
-2699,2105,40700,392,41569,40193,44.29435683748174,42.839712394952876,42.90897964366089,-3945,690,2669,40.4359953008418
-1342,-2546,40895,1730,41930,40604,46.27245670492802,45.70266316134631,49.76684998123349,-2921,1638,-1474,48.034600916307085
-3249,1428,40342,3814,40940,41566,43.07848749531818,46.50463415810036,45.42868293626233,-932,-1068,1659,45.25316631326262
466,2213,41682,-259,41054,41462,44.92900012260363,44.73200096737025,45.723530095258695,-922,-2967,665,49.24209862799862
-3601,-2260,41390,-3249,40285,40375,49.34812018257569,44.251826873001036,47.21284551251623,168,1021,1283,44.332103216985644
1488,1495,41097,2244,41485,41933,45.60156995709824,43.8009293043351,43.51106320701717,93,3138,-3306,43.20958975820315
-1244,976,41713,2503,41970,41974,43.141759501527,41.68434973257458,46.559556502850555,-3902,-2430,3374,43.446918290537866
3623,-1503,40180,2576,40010,40285,40.935129308581416,43.10571274835408,47.56751077054015,-257,-332,649,48.52345437477355
-3585,-2810,41335,2564,40752,40356,41.12958532221766,42.52905120202895,40.850243314627285,-3084,-3534,-981,41.47707623418083
1424,-3916,40681,2105,40973,40314,48.2466748643633,49.069321934172436,43.18253679822121,3561,-1882,-983,49.85091537974711
7,-3117,40121,1718,41645,41192,48.017447638114625,45.460193493232275,45.477469573448474,-1050,2623,-384,40.129556162934406
784,-3000,40961,3616,40989,41229,43.351410951060885,43.4060721768476,45.38837610735179,1110,-3224,-1716,49.92628921868967
-3130,2894,40406,559,40585,40565,45.84477967464938,42.24762682674863,47.597138745386076,3659,1173,3890,40.6060673182937
2466,-1403,41536,-3820,41028,41658,49.18211271495183,44.356782136471715,40.47653772585278,2893,2617,-1187,48.44041301610131
-937,-1442,41207,676,40165,40255,43.780443993844585,44.156745848621945,48.051343234880804,796,-1759,3084,46.636799373851545
-106,-1237,41735,2427,41512,40186,43.114042991177016,47.71634079603846,44.28928442539622,3036,3084,-749,46.24892848142279
-1316,-2431,40983,-877,41480,41588,43.53387174449264,44.5029262752454,45.467381276960275,479,348,-1239,45.061958174423935
-2213,3115,40127,2864,40580,41740,42.51372443559662,42.827431671969215,41.719042016105995,-2134,1961,-681,41.9908276848266
2264,-1061,40761,2938,40056,41716,46.8186407849307,42.750978657201934,40.02741729685629,436,-3599,-2558,44.419552955321834
-3556,3887,40574,-1748,41892,40371,43.28135896330804,42.61431127331885,44.52939968311732,2561,2431,-2927,45.84944079285361
3349,-482,40019,-1737,40715,40651,40.28363271808193,47.92964006336195,44.81799633015796,-1083,-1803,-1664,43.3787594625498
2666,121,40203,3908,40241,40051,49.70268000457609,49.80876923959915,46.9944585588414,762,-502,-2656,47.54999562181332
2703,2878,40772,-767,41433,40091,41.12878006017079,47.396041480732805,47.675129643328326,-3174,-423,-662,42.48693551345906
-1034,3275,41448,2901,40598,41128,45.139009641957244,41.320798825709055,47.728597260453654,1053,-2028,3772,42.39469479514734
-2214,1290,41602,-2005,41757,40359,43.22389729614414,43.6191486119476,40.79720312136059,2677,-1249,762,49.31692465871954
2137,-1508,40632,-124,41632,40064,43.34231672416986,44.58263696738558,46.193554910290096,2147,2211,2673,49.60747035021541
1469,1148,40170,2921,40799,40909,44.39071482872848,40.40495200614748,42.09185390654147,-375,-982,-1676,48.22566435118139
-953,3563,40391,-692,40287,40865,46.82041548977489,47.4130627576445,46.38573669250695,2268,2960,-647,41.827215444138275
454,-2263,40489,-2578,41778,41997,45.57836428823548,43.444081826336564,40.894803256613294,1169,-2404,-856,40.76372108648677
959,-3568,40844,-3325,40103,40751,45.94923347794532,42.635661598796695,48.49399984055365,-3601,-1372,58,47.84922027083269
195,186,41886,-1464,40109,41142,48.89384094458184,43.51088863639551,45.165719504580295,2503,-3154,737,40.42929679896657
-3277,3455,40681,-3872,41479,41674,47.13241065144658,44.16389312713952,42.986526691923025,2375,1611,-3199,44.82181626425145
-2388,3418,41754,1819,41141,40042,47.213758560099905,40.461045776589785,44.04420148658583,295,1492,3034,42.803615824305986
-2795,157,41704,1197,40407,40017,42.55683891680654,43.65878163133589,42.482221059492424,-3142,-347,-992,49.71796115070621
-2159,1200,40759,-2611,40460,40823,43.690860161423664,45.97863806601663,47.58473703152213,-46,-425,-558,44.76006416646494
1494,-2573,40242,973,41462,41690,43.851434155087,47.09983569366235,42.92821429433582,-2679,-868,-2650,40.748282233763014
537,-1214,40253,3168,40526,40447,47.53797222282341,44.97008062429504,47.963948796131426,-846,3670,-702,47.256118962254256
2209,-1390,41244,-3043,41340,40204,40.56087182792826,49.164449537316344,49.565957120603315,-3391,2075,3799,44.86139957816991
-1435,3133,41315,876,41540,41758,43.66838145076565,41.127036672772334,42.39991395198231,-1010,3616,1116,48.27562625313833
-3452,2673,41859,2333,41609,41218,45.08742907741693,48.62055570635389,45.15906157265084,-3050,2219,2513,47.391224811861186
1103,-2170,40464,2842,41506,41799,46.061402705824875,44.47390796261025,49.30035458373286,-1394,3002,2111,42.861506064873
3646,-614,41732,-3956,40383,40213,48.70452940271723,40.391478942647296,42.33345910832789,-1685,-1203,-2529,49.84198623557041
-371,586,41536,3423,40481,41036,42.340205835233014,41.62558783953567,41.00223961542428,298,-2294,-1537,44.497476155162445
2547,-2901,41764,3564,40286,40650,49.791120015822074,49.73618190376096,43.27814640068976,-1626,-2905,3410,43.78545027084854
1456,-2216,40560,-641,41273,40116,40.903271583483615,44.079392131105095,44.40259141450685,1037,2437,3957,47.36433231175482
-1027,-1355,41613,2457,41855,40642,45.893636054015765,45.6409218241949,47.73455134978837,3343,-843,-3006,42.88555164775501
-3305,-1707,40087,-3160,40169,41534,40.89726699385414,49.95005297776789,45.18921409399964,1036,1401,275,43.07635251889947
-2532,2599,41648,-2480,41463,41226,46.245505860522655,42.427906839170205,40.72749166571679,-3731,3267,-3137,41.824952606077005
-887,2105,40523,-165,41968,41356,45.35767913056716,44.86679888300992,42.654496057706545,2916,-425,-2024,42.784980014513714
-2696,-211,40225,-2421,40252,40560,43.40667310020716,46.65875030144959,42.05789491917049,3069,2899,652,45.816780569027124
1030,-1625,40947,2269,40695,41925,41.64870033204514,42.1369174203855,49.702865091087006,-2995,-1923,1383,46.76021458297373
138,3946,41336,-179,41694,41735,43.98787579693941,46.09785291963213,42.40856106844209,1413,-2329,1001,47.51744478192303
-1173,-639,41638,-2965,40787,41605,48.11882092089693,45.34560018823842,40.47118724880393,261,-707,-1783,45.24859793960114
2301,3395,40986,1209,40663,40168,44.88689216089894,42.068360704325414,46.14225872608959,-2738,-733,-3574,40.65348483333738
-149,1025,41839,-3929,41336,40241,48.168231521184396,44.73248327615597,43.18579763603583,-3166,3176,3840,45.87098007165105
2444,-1961,40749,1127,41207,41989,47.4498420470034,48.81991007418355,46.602795841694515,3338,-3844,2836,49.25633802429578
-2910,3482,41932,-273,40484,41539,49.267327785893684,42.852444006462,41.814617289477525,-1181,3859,-2352,42.65220730189166
2106,3954,41475,479,41323,40764,43.583463091014686,49.669728305003005,48.31318122782292,916,52,-542,44.505847817385416
2842,-1313,41969,3879,42000,40130,48.892043003503915,41.45422463384884,43.94720031793636,-786,-2533,1245,40.498159697004475
-1361,1054,40453,160,40176,40179,41.76400271117735,44.35130925673528,41.07533004581373,3873,-1675,743,42.00797277435735
1457,-400,40090,2993,41806,41049,46.19751398044061,48.01736528696214,49.410817373444715,1109,-3967,-3047,44.35408597946506
-3195,-1873,40295,-256,41277,40678,46.213892783165726,46.50512859435109,41.26417296562552,2546,-2278,1653,44.87498678558578
-2655,3414,41937,3392,41230,41691,41.833400089704455,42.38734685930673,42.97581355187941,-3607,-3860,1598,42.406283373137036
1880,3871,41594,3692,41438,40565,42.94269891026538,48.59197625009318,41.93787562714564,3204,2431,2855,41.51317518040138
-1769,1602,40631,4,40499,40890,42.56158013941392,43.79212118536324,42.88138871562967,3037,966,691,42.1194748423228
2849,-714,40063,3725,41046,41712,43.962873932336976,44.43064580155538,45.27116567387071,2307,2071,3732,44.66728780147654
1213,1699,40496,-237,40642,41500,45.99547170630351,41.231390189454245,42.14916058475893,-3239,2013,-602,46.348663285971554
3988,-930,40198,-3342,40728,40146,49.08671726433462,44.025735612689665,47.889596057269564,-3144,-642,-2648,41.43988022105624
570,658,40872,3337,40292,41241,49.674803964094096,42.63038434872442,43.629746266180064,-2772,1591,734,40.45494692634614
-418,-1112,41720,1829,41590,41648,47.46804307377256,42.652555064788075,43.05618004467606,3199,3378,-627,41.94304395324054
-2114,215,40003,-2423,41755,41090,49.50062700564227,45.5976400671196,40.48131831399934,2716,3078,3646,48.941688985629696
-1732,969,40351,-747,41518,41384,43.212938774343954,40.22049101823157,47.40775336568142,96,3361,667,49.8738534074012
-519,3512,40546,-2660,41070,41446,49.981933786841196,42.74287058740782,48.40582670571473,-2558,3299,803,44.469492573293024
3682,-3165,40253,1347,40161,41958,49.589616476312145,42.90081308921259,40.640968078203215,1333,2802,3879,48.45602774822543
2922,2894,41561,3147,40207,40148,44.85532280445381,43.68422744558946,43.30894587165779,-1640,-3833,-2229,47.07720214608952
531,-3192,40759,3798,40882,41141,49.64007270057048,46.331773465054695,40.85238477463612,-2457,1507,2419,45.770657749455175
-1269,2334,41476,2239,41496,41973,46.303849056350536,46.21309203837201,40.682261906202605,-1888,-1874,3718,46.51181674606882
486,-716,40387,1400,40292,41492,41.872809127582265,49.637093229320215,48.55949451147998,1378,270,-1969,42.30051595289136
-3362,-1186,40895,3915,40867,41274,47.48344766025572,45.37381182497343,42.53988626879454,58,3814,-727,41.42281703549131
-2876,3190,40125,3796,41415,40796,44.01897937260647,46.89406361713281,49.52098237315113,-57,-3555,3256,41.50203207949814
-2896,1048,41498,1682,40424,40965,42.377688771873615,45.940026839755284,47.229604031405806,-1818,397,3190,46.91607658900967
2168,-1122,41989,-2549,41772,41089,40.274768429347525,43.30279545727204,45.93645803389167,-633,-3572,2154,48.64959966612464
-1861,1588,41139,1224,40966,40086,47.251265485353485,43.56576101206431,43.5850052913073,2127,2707,1233,41.30772061227197
1915,622,41380,3645,41368,41166,49.57227315772089,42.24520245479463,49.62552750816258,2699,2130,-1381,43.87892084006679
1185,-3501,41644,-3873,40213,41087,45.09603261387401,43.83081925408492,49.1153718378242,-3336,-2750,-159,49.483145871942966
-49,-1444,41323,-669,41281,40488,40.992806942108686,42.89842608121981,45.794871978758245,745,-92,-3667,45.65357461476307
-79,-3645,41037,-1462,41926,41366,47.21938897445896,46.152403181383555,49.32994946380242,-925,3818,2317,44.61740634375016
2234,-2600,40132,2240,41067,40476,49.51835559227164,43.65471843013237,47.32048665821061,3925,1513,1165,47.163181606974945
-3624,3657,40066,1055,40003,41169,42.92873213836541,41.86057037531362,40.74157706165599,-1804,457,3742,49.46830037539752
-507,-2655,41951,1602,41373,41780,42.29991115318108,42.37493702081457,45.689408575443636,1455,2380,3105,49.29251273077861
-2855,-3024,40643,-1947,40004,41561,41.44592140199723,49.355362812850345,41.539142992965196,-3958,709,-2589,47.12310312632373
123,1317,40810,611,40868,41285,43.661430765197835,41.51595515601409,48.444888002277985,-578,-1525,-3790,45.470676389554015
1685,2072,41965,-1564,41431,41054,47.19714790453246,48.301069718792206,40.95386539250233,669,8,-1861,46.44603909316362
2488,2543,41846,2600,41371,40882,42.24801862723868,41.81335089071496,46.25065409256697,-2566,-1493,1830,40.54590656602951
2962,69,41503,-647,41480,41335,42.786005171059664,47.61944222648588,44.577481619785026,-3666,220,-1647,47.14502362992778
-680,2636,41846,2274,40942,40975,41.44861149438084,41.05840899618712,42.091574353481924,-2706,-564,-589,40.86947581386781
-3532,-597,41904,-2093,40578,41727,45.924324779892615,41.839959586654324,41.60446297405003,3391,-3372,635,49.493734157220146
3801,-2215,40994,3605,40717,41305,44.91166569963477,47.80935057339856,47.61412191140362,-1125,-401,1308,45.99460551215208
1993,3710,40029,1401,41234,40130,45.70772448707069,45.90809992872903,42.07521198791759,2136,-3071,-2731,42.958602172297546
-3476,-2044,40875,1707,41939,41376,47.18842606303322,46.02194690241806,43.76975259116453,-3194,459,1325,44.42417070483379
2781,2958,40812,-2614,40224,40425,49.348246423231245,44.36610157081411,41.08071078002831,2662,1344,1877,45.10056014227707
630,-3240,41447,1989,40208,40577,42.59289510217719,46.105634388382875,40.00717492495541,-1375,-1752,-1371,44.11416527780428
621,-2814,40533,1142,40084,40698,45.983858174823524,40.44504343456389,44.68083813457352,-3132,-2641,3949,44.14342635962284
-2543,1268,40829,1211,40047,40104,41.85511933865159,43.574568926213935,49.02518023648328,3776,3423,3980,49.128513718542585
2980,581,40486,968,41362,40715,47.91783497475829,41.36383428800485,48.40410262570325,-3085,800,2965,45.01897532161057
3182,3360,41779,1416,41994,41162,43.81100300275359,41.51810466790642,44.249725821952254,815,-884,-1262,46.85963724476027
2433,3455,41678,-2590,41752,40818,44.068180562964685,46.21591591363947,46.98084782050198,-50,2300,772,49.13777188836323
2734,-1610,40879,3417,40476,40590,47.471738632566044,47.06960174071894,45.149731635165246,-1595,-2493,-2536,41.33974329334507
-1670,-87,40007,-3940,41455,40251,45.84311877911551,42.1768433660887,44.179396155475104,-246,-610,-669,47.79544195020116
2343,3566,41139,-2009,40420,40738,41.231104070772545,49.46629161045393,40.22736295213707,-1946,-3551,-1458,40.66877641214998
-619,730,40747,-1139,41523,40761,47.90930747427911,48.610654004139946,48.348615817323925,-593,2754,1292,43.21559771506827
-2920,938,41571,-3783,40630,41065,46.247233437692685,42.08626079180843,45.27328918528675,1578,-938,1731,46.62277989261419
3236,634,41079,-1586,41876,41200,46.48361398036697,41.59504828785263,48.40864332635631,223,-1699,3007,42.35521247223697
2964,2421,40730,2158,41272,40817,44.320097566970475,42.80440673654314,40.830051466003106,2307,3528,-2844,43.02055495108641
2035,-3528,41587,3791,40656,40295,40.67534738206449,43.94737337856646,42.24928085687657,1000,2234,621,43.425834295096735
-1296,3459,40468,-1180,40474,41612,44.90879732697269,42.41112153132005,44.5778073995611,-58,-3542,1542,41.449158688429776
-1561,-3412,41754,1618,40597,41284,44.953044892512736,46.33206070270055,41.39506851274703,-3642,-1940,-3750,40.21572996749005
-1867,177,40739,2647,40372,40788,42.18848052369309,49.729296942591674,40.958656407088085,-251,248,-1613,49.218064040814156
-3577,-2854,41830,1771,41494,41417,47.000012285677414,49.417254089595644,43.07920493778745,389,2206,-854,44.746246018013565
-2928,-3616,40861,2096,41165,40205,40.72016420625275,46.5676915861821,47.281390013646174,-841,1540,1814,43.70935730270296
-47,-1059,40252,1150,41466,40314,49.24367671722988,45.16372818969807,48.17366770957406,-363,-1945,-2815,40.144181666004
3615,1352,41777,684,41097,40406,40.29721470413878,43.74753929796361,46.969665868106915,3695,-1148,1858,45.188996632039135
-1717,3056,41316,3151,40872,40099,48.227954156527524,47.935238879709985,46.89888069784514,1097,-911,-530,41.88151350311064
1239,2115,40912,-2974,41407,41632,40.31724225225831,43.88726905376275,49.82935090205072,3621,1461,-2122,41.941630388837204
-1011,-2760,40821,-2432,41271,41801,44.41863034768872,46.937345291317506,42.35964869972452,-1620,3339,696,43.01424795835338
947,937,40027,3454,40453,41159,47.49143675471851,44.033718468934566,46.65280560121442,-3744,-2643,560,45.43261744548112
-2588,2460,41832,-1757,41994,41266,41.84560808941743,41.180753649201215,48.68339646716037,-2226,-2362,-952,44.48187315252636
-840,-2851,41138,3959,41822,40555,42.050960219801574,49.88802353313708,45.961383542655916,-2727,-635,-379,49.143495645502774
-2068,-2347,40869,-1051,41507,41284,41.93797438688617,45.76997034797459,43.884067043879035,-3451,2238,3210,41.2614708589246
3079,2524,40460,-2347,40127,41628,42.14953137483458,40.171865125535454,42.17974574949091,-1739,-2553,3312,42.87269610141986
-2449,2546,40330,1792,40203,40225,40.43106248798111,49.66864309073187,42.85024990569049,2763,-2410,2949,40.23554090847823
-229,331,40830,765,41660,40858,47.388717512941895,45.255163807189504,49.294684570649814,2310,1333,3039,48.80491631357113
-1638,3110,40715,3591,40319,41611,47.48025858144554,45.591132202348035,47.61325707362845,361,-345,-1423,46.48742932217639
-3001,1855,40782,-2654,40247,40606,40.4713697767658,47.84974890793169,49.60915509543511,-3642,872,-3021,40.13197233888995
1631,-168,41831,1448,41328,41978,41.91180998554017,40.12892048610616,49.602989643932794,-953,-1677,-3483,44.85216584228526
-2368,1631,40781,-3094,40065,40020,44.48775404698212,40.91892486956696,48.38626484908383,979,-3162,-1335,44.87812013666661
-3910,-2397,40846,-2636,41484,41710,41.21357586511748,43.47692569397843,42.89037158052916,2251,-448,-2613,48.48266871885721
-1956,-545,41011,452,40427,41108,48.76925877841909,48.07869065486723,44.63613815240705,3874,3810,-2541,45.38769577866861
-2668,-960,40020,-1602,41250,40903,45.906426191151965,45.9461513570849,47.85409795549907,369,1875,-2982,46.58868822957379
450,-2181,41650,-24,40919,41536,42.77737927024155,47.254130659737704,43.77598455069226,-3314,-3359,-84,42.937854528391284
-1872,-3583,40922,-1112,40628,40908,43.33355962676357,47.09638264335412,47.59117061023925,578,-3014,-1421,44.30504919592887
617,2756,40612,-1152,41098,40868,40.87994209798346,43.00650498894978,47.5690086699325,392,-3860,18,48.89462923833903
-3216,3121,40830,3277,41247,40169,49.30064192069109,42.8191350769558,42.43752436530294,-214,1226,-3327,47.68392301795591
-2084,-2689,41803,234,41824,40060,47.903779853352155,48.115522355266975,42.34975799511047,-1938,-2870,-1701,40.916422553901384
2782,-3287,40909,-716,41448,40509,43.51447552915514,47.4919083425815,41.582996086213114,-1789,156,2103,40.2010040141741
632,-224,40989,-1238,40754,41970,41.07899027182856,45.77583108717093,40.120574476740266,-1099,-1941,1083,45.42140996567897
-243,-1031,41782,789,40077,41682,45.124524539882145,44.787529370296866,41.149126597544594,2490,-1586,1917,45.253391196316336
1406,2891,41398,2471,41497,41611,41.20404649416394,48.086256045455755,47.36005823868848,1293,10,-1416,49.04475360008656
531,6,40148,-1933,41234,41087,48.9201766210731,42.205460099632376,47.39779835542651,-2613,-1952,-1077,40.54162201763031
-685,2616,41625,3093,41104,41902,41.50050088083952,49.87263751363041,48.55671116745333,-1260,-3081,-2967,44.275579770429296
-2207,-2704,41034,-2995,40790,41528,44.23423794733685,48.68914109091622,48.81238929545258,-1301,1243,-641,41.04672145915816
-1990,1828,40009,-3004,40747,40977,46.50341818926721,46.493650086392066,42.66836817318793,-3479,-398,1548,41.0009177045486
1701,344,40521,852,40482,41605,47.18589396030925,47.28962971556015,48.12392853869853,-3915,3940,-3482,43.78759216713782
3268,-532,40228,-601,41256,41946,40.81378131103191,43.57555210057504,42.64700108405745,3205,3616,-1538,41.06251492544368
2516,-3257,40803,-3120,41267,41760,46.980422557338464,41.73329108918472,46.11669568283116,-1842,3782,1812,46.43192980688008
11,-1778,41588,-3221,40875,40084,44.47210858014984,49.72955852116221,47.13311179034112,1372,1098,426,49.003441494142905
-2045,-1392,40577,-2541,41773,41182,47.8625082901005,41.67385424260124,43.18559704774674,-1056,280,-3142,48.303224528930286
-3622,3612,41696,2389,41089,41909,41.61019703954755,44.30030679462484,44.972455243679086,-1167,-259,-3867,42.4212421004698
-617,-2289,40930,-3403,40957,40679,43.23458182977287,42.99750745700838,44.3574854292378,1998,387,-1474,47.165249374352136
-1024,3421,40577,-2878,41771,40046,48.28628824597661,43.42761047220934,48.830117883611244,3092,-72,-2623,45.55295767538694
2539,-763,41599,288,40767,40915,47.71454104853287,40.760754396657305,42.01611556258341,2899,-1378,223,40.66316641245337
-3519,-3234,40544,1668,41817,41090,49.89293684550943,40.80857137838224,43.07752624751922,701,-3302,3433,47.71851014148555
2185,-3934,41888,-601,40730,40236,43.70478325610949,41.003603647832314,48.35919007272913,-1873,-1210,471,46.97160989812622
2098,-2223,40807,3988,40582,40938,47.77689423667802,47.14090409711607,44.0067033206539,-1363,-2046,931,46.47303817039329
1210,3416,41899,-1360,40212,40974,49.52838562573012,48.10535816409157,47.002165327817494,-2679,832,172,41.12297513628589
-1057,-2280,40131,-1334,40420,40692,41.16779116446795,45.689816868152,42.675488372205066,-1990,-333,984,44.78740329919928
-1937,3511,40985,3141,41016,40909,42.356601600225964,43.33685075985093,45.31548341057169,-2502,-2755,3335,41.39211173629787
383,3698,41934,3407,40831,41823,47.73503926988606,45.66132989857992,43.229220469183524,-3106,344,-919,41.6596368663223
1067,1809,41804,-255,40361,41250,41.395100911374975,48.58120990021221,45.88091226588757,882,3208,3182,42.098957630267805
1824,2448,40153,-2949,40980,41632,46.82176680592668,47.302707699852164,40.79147792424715,-1629,-2733,261,42.350149584031634
-3793,997,41643,1286,41292,40752,47.82570152416457,47.7552011855899,44.51314747772336,2551,-3033,2795,48.84392456235389
2340,2380,40486,1286,41985,41764,47.57277193306655,42.286629283048704,41.201357349993216,-2398,-1977,-650,49.49554260536016
3836,-2569,40092,169,40415,41106,45.65632141944578,41.50936236478136,40.20580194111502,-1689,-578,307,48.20895355531616
2893,-1234,40053,957,40430,40524,49.606552534748865,46.708462246285194,43.04315452657429,-2809,110,-2563,49.451916796611556
-1058,2973,41635,448,40734,41992,40.132772445522804,45.88515835244471,42.50638336926063,948,-1719,-2899,48.358156823408606
3849,-1521,41673,-1145,41450,40218,49.92427623073045,40.87358571235333,44.08775559437036,586,370,-2356,41.87201660552457
1028,-102,41389,13,41217,40236,49.73169544834583,45.07773727485833,45.092478221673765,1005,-1343,680,40.2111866441229
-2200,-1244,40234,-3612,40673,40290,43.64412867546302,49.08473186110814,43.18743463815918,748,-3765,1450,44.26100025803771
3420,3156,41508,1083,40542,41891,46.98015900717428,44.30383612575919,49.5309955959773,448,-3091,-2103,46.45697258142507
3901,-970,40383,-2251,41519,41048,49.7279438962192,46.06119211122524,48.62442808491015,3676,-422,-777,41.49718007751169
3732,-1736,40516,-1883,41969,41293,42.47478437379999,45.24295733678811,45.7453008853887,594,3381,331,48.6195613901402
1016,-460,41065,3992,41545,41516,41.86387415945537,45.2865360088637,43.158460562971435,1181,-3313,63,45.28201634683783
-3059,-2812,41598,521,40258,40308,40.80479853764077,45.41853341502859,46.49978743491751,-870,-3913,-2106,42.103157819845016
3874,-2817,41474,-2146,40324,41611,41.84432375227631,46.22385123040655,42.384027504215915,-3022,-2206,2599,43.32157421872728
1507,3112,40461,537,40642,41551,42.88793300455227,46.48994776640572,43.132033528743,-3832,812,-2823,40.45804844372774
-867,-83,41359,-3348,41983,41144,49.35533108464681,41.02301137220487,41.75632142929277,3015,-3190,-3253,44.284186937936184
-3672,-251,40429,1010,41504,40941,46.41172630498798,43.90339891312599,42.93736257000662,-2242,231,1777,41.58000442519064
-2185,-2006,40135,-930,40016,40078,44.64600400641958,46.74010959395822,41.635877939293415,-2306,-3659,-3655,46.83384962032752
-2832,-78,40255,2992,41853,40444,45.49883130651125,43.357060624050334,48.6589755770912,903,-265,473,46.83831375163971
3322,336,41697,891,41070,40066,49.36830380800928,46.36721190370615,44.59478291084647,-63,-909,802,44.857162948821234
173,1608,41484,-3321,41611,40446,48.52373100426583,46.909713846978974,42.255813384157335,-2832,340,-822,43.75621585918735
984,-1951,40637,178,41509,40217,40.40579222426895,45.84425933172571,42.21552492305973,2226,2501,-3107,40.62408815618275
3612,45,41918,-2535,40847,41776,41.97991230057942,43.897095951422884,41.67869849952938,2311,924,-1698,47.75642465742223
1434,1860,40786,3113,40952,41334,43.05585705892278,47.07728504794522,43.835032657844536,-3501,1895,-2133,41.36826699794963
7,682,40168,3833,40057,41433,40.07154414900527,44.83452280287182,43.690925870342106,-3998,3837,-2097,41.54041559762101
-2512,2631,41871,-3002,41428,41338,44.82076767103155,47.77420224353902,48.75934536776331,-62,95,2308,49.40365328554499
-562,-474,41709,1667,41460,40595,47.010233246457574,44.96924129715165,46.59648552018895,-2491,167,804,45.3453902490842
-88,1975,40484,3385,40467,40905,46.112509659597166,45.34176278322714,43.91089955071138,380,-226,-3051,41.014109479774085
-2309,538,41524,60,40107,40081,46.86049174829009,48.49364553410641,49.528131757621146,-273,1876,-991,40.11893866073743
-2751,-3915,40268,2626,40016,40823,45.78205597045737,44.546901889978784,44.45508420580775,2167,115,2715,40.12006446312748
3505,-877,41556,-2163,40362,40456,43.67242473479518,41.0006086577472,46.96000891761153,2783,3153,2284,48.064830811371195
-2834,-908,41488,-791,40321,40950,47.08509141378879,44.48645027862178,46.6395381948724,1917,3647,-175,41.29661938147175
-3910,-3982,40447,-1737,41148,40395,47.31654681575818,41.29010592911551,43.666944051655165,-737,-2481,-1260,41.385711864963284
1702,1275,40661,3038,41449,40037,47.0675138854974,48.78079362732547,45.5815202153598,-2426,-101,-1334,40.961559283873164
3916,2812,41806,-759,41326,40118,47.32848604784355,48.4119138848515,41.27115877269188,2259,2945,4,45.650182155267075
1619,1504,41020,-733,41072,40149,42.3782016434039,40.23671207243484,48.30846379589536,-2224,-1392,3030,45.85305394204665
2375,1594,41214,1651,41205,41939,47.36215575029038,43.056541458478534,43.604644437256354,-982,3307,1847,41.58502305769632
-1681,1557,40577,2730,40256,41987,44.420496286901525,44.902037262544944,46.30998783838361,880,1968,2307,41.87652227708155
-3561,-3942,41558,-1509,40750,41428,46.2349183705974,43.87094061652085,48.18849914605407,-218,2175,1294,48.853667754559936
1975,319,41243,-3788,41447,41973,41.52146306181766,40.22244575804845,41.158376300438434,3892,521,-3506,47.04702539845658
1130,-120,41384,3358,40515,41018,49.3905955658183,41.29047356748095,41.852601035909984,-1987,-3149,-195,46.58240858863948
2178,2380,40565,201,41063,40236,41.93644666652414,48.077012553828986,47.89509210689633,-1940,-1934,786,43.62674920362602
1749,3951,40261,3744,41395,41815,48.96364768276926,43.273284253039286,43.11299238219385,-1393,-2315,1676,47.56768681980456
-3579,-1733,40126,753,41764,41721,44.99193784775387,40.13200762438657,41.88039053588083,-3575,-710,-1651,41.99531635940005
618,2523,40076,1326,40914,41647,49.56635667053367,41.92722278013342,45.2397197360951,-155,3223,-1244,49.722113930869
493,1602,40218,-578,41631,40529,46.543857940981304,41.13382370876971,41.550203964928365,3073,-3089,-2958,47.70226298952342
-1142,-222,41026,251,41521,40858,41.89956181799051,48.29378183815747,47.9601634257462,3002,3140,-3136,49.27474775620979
-733,226,41014,3634,41760,41780,44.29264450677471,45.71558202261643,45.658342307125054,2122,-3943,-3825,40.26621231518124
-2323,-2484,40882,-1591,40246,41442,41.11855500932742,44.76881191980268,43.383967447822975,-1392,-145,133,49.42850133966133
-3500,3001,40299,625,41549,40611,43.33228636511168,44.46502175184785,46.01197401910503,-3875,-2360,2106,47.18492914332273
1132,-1402,40107,2874,40925,40832,41.06964670357337,45.660037259149256,40.99905380984496,1904,-3310,1945,42.866034422901606
-1761,2809,41545,1464,40437,41308,46.57608726309502,47.52181568391955,45.25493655510102,3368,2303,-177,47.80004162505317
526,2928,40428,1874,40863,40295,40.36485335213798,43.834230161902596,45.981381352838014,-1716,987,-1498,45.923659788208596
-2369,1005,40663,1088,40924,40417,49.557096090407434,40.4251440392681,48.11488340351527,-1347,-1413,-2338,45.661058968707614
-316,-311,40116,1217,41734,40314,46.76409539311535,46.2322474376931,45.68349271737412,-3421,-3250,2126,48.64425796755562
3462,3010,40747,-1369,40999,41657,48.12265955353382,41.56775081706913,41.304914167778854,-1365,-2850,3390,49.16845986313581
-1694,-3745,40322,-1557,41454,41216,43.56842524122191,46.115169425891686,49.52778565647637,1988,2685,3297,45.744085387759476
-639,-38,40009,-271,40213,40337,43.462183563952685,48.08773401638333,43.74836178532805,3143,3530,1623,40.785907253279554
-1344,2676,41310,3089,41293,41463,49.06031292938864,48.36821376242631,41.641048185859475,775,1094,-1320,48.11724035480286
114,-3206,41055,2393,41256,41081,42.34410157055786,40.80507725449658,48.7333638905548,1578,3622,-1812,49.74996493758866
59,-3681,41182,-3105,40195,41467,45.35247916097775,44.41317018466787,44.75484387203253,1033,-1444,-1958,42.02049001984823
1943,2354,40586,1083,40835,40991,40.847056619886885,49.98865810850052,47.84788449761348,3782,-1578,18,46.497211895182375
-1928,2848,40363,541,40495,40075,44.82706558562056,45.387163123819974,45.728429628405166,2213,-1977,879,45.99349975015693
-171,3607,41036,-2779,40949,40919,47.510967486495616,48.74495009481609,45.965957281789485,2893,-2371,2101,45.58335377817286
-235,-1167,40443,-2196,40380,40726,49.99739409218515,43.48238513839875,43.088942933886116,-169,-3520,2574,42.67931636047608
-3728,-269,40051,496,41485,41161,48.39820926220685,48.54401286425359,47.533726025032315,3090,2433,99,41.40915809799431
-3695,3708,40920,726,40635,40973,40.652519595421076,47.60917737001772,44.77058889722554,204,-543,-1828,47.39560015240513
-2495,-401,40953,1394,40854,40471,45.85471532737565,43.7394126352162,41.0095123246536,177,-2518,-3844,42.3506484014524
2467,-1604,41602,3391,40081,41147,45.47762122713637,47.68466154404799,48.6767232755318,2895,-2331,3203,46.35269071514549
3974,700,40119,2194,41776,40725,49.5492301036404,40.571752220749005,43.342477856203175,-2313,-2112,2931,42.283157244371495
3279,2002,40365,1722,40436,41394,46.346164045848056,43.65941290784578,43.651027745417466,-811,3325,-2646,49.24785749569865
1006,-3010,40510,-1616,41579,41469,46.33835221443434,49.068112523223995,41.147026594925855,-2937,-3380,-2927,41.52864885068793
-1307,-1518,40782,-518,40191,40255,47.776627714529624,49.18237763000657,41.13237597279032,-1347,-3823,-1856,49.41798711335774
1787,2152,40963,1713,40202,41609,41.64927889552334,44.54402290732423,42.48263639095171,-1088,-1460,-2861,44.54588514740013
1346,3968,41558,2625,40364,41182,49.28664204399769,40.86200144056601,45.04193719854871,-1726,-3865,-3382,46.63387204163372
-1161,2006,41300,328,41447,41206,42.70821441897808,43.12017398690702,48.47943635895744,3896,-2108,-1780,43.23715756697281
3437,959,41019,-3542,40036,40998,46.509987120365246,45.52740279327957,43.37216721140369,-2588,-361,128,49.89168839271535
-1907,-2234,40565,-3386,40219,40334,41.7001319103994,47.455170756316875,42.9796595894928,-1929,389,-3136,44.38008065524419
-2918,-3953,40553,1597,40352,40047,47.77083932574923,47.37171290885965,41.81004542962086,-2015,-359,-1823,44.06584505570238
362,-2057,41278,3987,41923,40116,48.27341337968122,43.055996678792354,46.1031894956882,-75,-951,-3637,44.71266650107576
-2359,-3332,41060,-2991,41539,40377,41.11265741884587,40.854325842499094,47.277635484417864,-3860,100,3179,48.693445015777804
-3568,382,41911,1003,40806,41816,44.257847206453164,48.75309144238225,43.022271144171334,-3173,-1651,-2393,41.44296617888559
-3479,-1167,41498,-268,41484,41151,47.654890703377006,43.1443126544202,42.88938474687604,-192,3053,1906,49.2053252251329
3757,2439,40231,-3643,40706,41290,48.13683281786181,41.61169220651919,42.88114856631222,-2743,2123,-1564,43.144510637786425
1563,2858,40449,-2439,40278,41986,46.96209413752891,40.8533594018506,49.53087322725211,2563,-2542,-245,43.65832832608841
2937,1415,41883,171,41878,41292,42.92755710552611,45.260853672534616,41.425220892048415,-583,-875,-3877,45.43483286675483
3821,-2356,41514,-2475,41570,40694,43.85901265005642,42.31818886650242,48.80101658040598,-1312,-1782,1373,40.45127686167968
-795,3493,40650,3686,40804,40373,49.373116181338375,48.997719065195895,41.65646661727031,-1701,1355,-3940,46.98237756202994
-2305,-1335,40718,-3183,41941,41783,46.55805554620606,47.94964892193677,41.20897635530698,-1058,1040,-3897,44.17907993974798
2573,-2752,40758,2176,41204,40418,47.991539454572816,49.55059161305911,45.41805144300859,2003,-2710,2794,43.16451142221769
1172,1001,41310,-3108,40028,40546,46.596651926850086,44.96608878859218,41.752885819504144,-3117,2521,-2126,49.6853929647711
250,798,40916,-974,40155,40480,41.47823618910769,44.92273068133596,43.800690925477326,-122,2756,654,41.2033793154799
-2959,-1758,40268,966,41999,40327,48.599788515693234,42.940436192346716,44.741661144910154,-2312,-1513,-2158,42.31193697393008
3005,1929,40149,2251,40992,41943,44.1443045283772,49.720655011151095,44.472358701631364,-861,-2702,-599,46.77342035631801
-2824,-2490,41970,2719,40490,40972,42.418752679934826,41.85008674760494,49.460753987691454,3032,1222,-3227,45.33658962605045
-305,718,40836,-3436,40166,41881,45.12312756918331,42.7715753063041,49.025796441606644,-27,-1977,-1968,45.94944985771076
-1106,2247,40339,2981,40601,41165,48.32889928242838,40.81645603130288,49.88353588537273,894,-659,1041,43.85051238570101
-2338,838,41088,-3857,41605,40288,40.1888639534785,43.38234092655324,46.48082042805361,1565,-284,774,41.21763134191416
-578,2116,41417,-171,40965,41657,49.38912527045389,40.39909310198222,47.38514279438986,-126,-911,185,46.17829490677182
-564,-1143,40631,-2905,41460,40617,43.954913962741166,44.698819650651785,48.25993479263174,-2981,-290,1907,42.83003547132342
3431,1531,40415,508,41458,40961,40.89941217668717,40.660540050748004,43.3654382596823,3800,-3851,1815,48.16257643489976
-345,-1380,41403,2241,41357,40326,44.87382435909234,41.512451514376615,46.74406714779819,-3840,-1989,1494,44.80590086918236
-3943,3274,41771,1330,40578,41809,41.178684959958055,40.240338208562264,47.450534872570614,362,1535,3617,43.065829510678086
2325,-821,40837,-1288,41655,41807,47.76092342705586,44.34328068198708,40.45269258137244,-3237,-1583,-590,45.72047528582277
2507,3956,40293,567,40187,40943,43.6282817200265,48.93126374164915,40.53688521260753,3610,-99,-651,45.343519524548704
-3850,2287,40769,-2804,40150,40916,42.056314948643724,42.81729173966202,45.46896451960059,705,-733,-1386,44.16251340248443
2710,-2140,41935,-828,41932,41546,43.26315547631941,49.21655499337124,46.77635225086278,1546,-3324,-3428,43.36412004459283
3731,-2895,40268,-233,40911,40990,41.56566750047565,49.9560580883598,47.09307474978803,-3269,-669,-434,43.524478689800844
-2285,-1949,41954,-1006,40688,40574,49.10315889569994,40.85839209392938,49.38532358644371,2351,-2888,-3030,46.31366107558473
235,2358,41836,-3477,41248,40299,47.9462969527211,45.40269942962574,48.52287485646848,-2072,2405,-631,42.132328308775165
-2788,1956,40994,810,41918,40180,46.62811037571271,44.49218383899482,49.558124777604675,3163,-3664,3240,49.634525897268524
-944,-2369,41119,-3420,40137,40315,41.60776831943197,48.492416479733166,43.977528957481695,642,-3398,3753,48.06256444783589
893,5,41465,-1856,40389,41600,44.2066589225328,40.32602359274073,42.44084134871367,-130,1064,-2156,46.412033029496776
2176,2936,41790,2370,41737,41482,41.08065408892552,48.396967014907815,44.48686101050217,-2424,2506,1120,41.025432688788875
-309,808,40934,-3538,40950,40409,49.75175125972247,44.91707212247129,43.98484998676229,-1730,-1919,-11,45.80152297979043
-994,-1071,40473,1861,40153,40845,45.026128879800254,48.75041392907425,44.202974627941884,-3083,-3381,-1736,42.981267834738304
1280,-69,41221,1506,40063,40878,40.046371731766286,43.946374395582076,47.40149260639191,2947,-2921,-583,42.261959346697736
-2369,1316,40255,-2085,41034,40511,49.15843465213841,42.52433541656005,49.170214689528976,2861,2612,-1796,40.316228721724485
-1282,2688,40039,134,41490,40370,41.97600620701902,48.89535344539039,48.902224887939944,-3493,-3965,3085,46.52415265846163
-3223,2534,41694,1439,41923,40339,43.635989374104845,44.56499165944757,46.96878562152125,3326,-889,2937,41.23602669467479
610,261,41371,-761,40026,40418,42.83363937637941,40.79307911922692,42.49347744208359,669,-710,-836,41.89109727289807
-464,-2176,41815,2760,41687,41420,46.19156170071944,47.37204357021937,40.299912327389855,-1642,2568,-1176,47.958925834034815
-162,2786,41262,-2407,40002,40842,45.27713254527202,42.298340820573614,42.348556470860075,-1307,260,-3736,43.5168604904569
250,-2686,40897,999,40974,41003,40.74076851672486,41.97847233582847,41.39569742512633,627,-3951,2644,42.54037920509697
882,-1281,41400,-3677,40259,41406,46.67313132411018,40.2711807302538,48.08279759360187,3506,522,1653,49.648015967087986
-3801,-1198,41121,-919,40966,40892,49.93379379875018,47.49075489621043,41.680757178069754,-2894,166,-534,40.428231650968826
2557,690,40043,586,41740,40097,43.35481736134134,40.907968718991185,42.2622688965051,3425,-1091,1560,47.14678015886635
-3940,-115,41724,1301,40114,41395,44.80443147421779,49.2467583173797,41.68394061983065,-1126,2382,3143,42.01964016345979
-1432,677,40071,2367,40989,41277,49.07709620238338,40.40199920913409,47.42056849570876,-3682,-537,2978,41.21482949056158
3762,-3080,41217,-335,41339,41157,49.28756362074264,48.278885997132214,40.081219406896814,343,-2058,-193,47.390460863649174
3502,-1193,41526,-1640,41820,41311,48.89403670196028,41.55626377545847,48.68965797661593,-648,1084,-810,44.01586845881434
-2943,-2150,40405,1590,41100,41026,49.73836614975536,49.42176841738919,49.5078660199652,-2452,-2861,-203,45.269629097771656
2550,528,40464,232,40151,41049,48.387394975791196,49.19642354000614,45.2117888247663,-5,2255,-1378,42.48137563192814
2957,-1859,40784,-3405,40439,41527,41.72115040326178,46.94572572336126,41.56545382619102,446,-1546,2800,43.70815761796261
-62,-3880,41807,-2830,40360,41063,45.498018389632676,41.660155485700315,41.68355082296007,-502,2592,-2160,41.49097082765896
3325,-3621,41969,1816,41226,41774,42.65909353881801,44.75914570020277,46.682349192706305,-3373,1329,-3376,43.42667372291257
-3192,1730,40382,638,41459,40543,44.10160696122952,46.37777511765213,40.74249364517331,-2749,-3292,2303,41.64046688603906
3589,-158,40739,1738,41636,41602,43.69089000779603,45.958620321944494,41.71885800717999,1655,-1427,-1745,43.96488109144413
3071,2830,41065,3669,41917,40985,45.08863125491385,42.66859642775823,48.449445864476345,1077,173,1494,41.12112631476194
-637,-2290,41167,-2805,41321,41738,48.56924884458626,45.89867629444832,49.9061247613549,-1770,2702,1624,40.55908665721247
-3431,-637,40752,624,41823,41130,49.46936755988891,42.607554534718226,40.76919870229385,-105,181,-3831,47.52204456587989
2658,-1043,41665,-3051,41479,41828,49.74503686813678,45.98080006083941,47.83529370384324,-141,3674,3657,48.70140241553088
-519,-2961,40030,29,41344,41790,43.422699157863114,49.00878976676258,44.53450233163516,-778,1768,-538,41.68379342390837
947,898,41635,3224,40208,41760,48.454868096323096,49.18612966399012,42.111437228478124,2597,-3101,3647,49.88955139096585
3483,2749,40660,3068,41328,41071,46.63689774417582,46.886414473057876,45.26458682596814,-1686,3954,1605,46.179162682457616
1556,-1041,40420,-1664,41404,41588,46.89005069167021,44.68492865883849,43.40886358048898,3686,-600,1645,41.14147307592268
-650,-1285,41050,231,41035,41239,45.07083339498091,44.16972847302213,44.264229748598694,-670,-1389,-1110,46.81993710813615
2927,1419,40213,3315,41255,41474,49.704797028912836,45.66910933820964,44.52685327032646,1843,2200,84,45.856018793307776
1271,2852,40330,2626,40133,41554,44.478007997637675,42.37795441969508,43.87881031984385,-1773,2862,2812,40.546017594770255
-3454,-3678,40078,-885,41639,40546,44.187095516671555,44.97398967264615,43.23925561522177,3732,1306,-2236,42.35079285456426
3006,-3332,41643,1457,40503,40175,40.66329345143147,42.25670261675847,48.39467140082421,3492,-2750,2449,43.52270691068606
3485,-3640,41724,887,41817,41133,44.41489099612963,49.77817264339395,48.3016411286542,111,2410,-1677,48.46718232573031
-1025,793,40211,2053,40267,40933,48.552969620242536,41.86059522061258,44.22456104699055,-2325,2993,1549,44.92209586141075
2407,-1178,41729,-662,41745,40608,46.02836633498061,49.04937503271931,47.71684317892132,-2446,-356,1491,41.06668074762792
-1124,2105,41390,-995,40909,41743,45.60358071316599,44.64319889069297,43.270081416859774,-334,97,-1800,47.330745625801335
-1768,3253,40851,853,41222,40168,40.77157389915677,42.908850713288516,47.17415052676027,-3672,-2108,324,40.3606441960728
-1675,-3619,41023,-825,40959,40849,49.07731730517585,43.98426108219341,46.357600335498724,-2170,-3256,-164,47.618444134946124
427,-3921,40912,3209,40829,41315,40.197100731928224,48.81824728052118,40.038380852196845,-840,-2922,-1976,45.53698471932361
3986,-3046,40253,-3858,41249,41774,46.08114772476016,44.14322675412681,48.25606298267016,2714,1126,3049,45.99988852365661
1795,-1468,41565,3223,40609,40722,44.12667678037729,44.527720698130445,40.74737187200626,465,3689,-2479,48.62947381215169
3501,-2002,41692,1143,40144,40220,42.241181111510755,43.51011623183128,41.65539319547778,3054,1965,3391,42.839946043442204
3570,1498,40325,-3212,40243,41478,47.78599573866892,43.12153087090553,45.37085189796415,-2800,-3341,-3577,48.36674078636287
-904,1893,41811,2484,40497,41565,48.2370594331973,49.59442184523636,47.680419487870935,-951,1353,961,45.591059884433236
1334,-1350,41860,-500,40796,40440,42.27784361260289,48.99301121896521,42.936194394221076,3143,3598,-3523,48.09304483321951
3994,-1818,41652,-951,40276,40553,42.91238799878822,40.54347415516334,49.29335020824046,780,-1713,224,43.980053361411244
-2197,1164,40907,-3509,41854,40175,49.5479009386096,48.98814996601982,40.114476517251816,-3847,-3138,777,46.05369960188203
-3479,1286,41393,-2049,41142,41743,44.31057147478985,43.75891787550384,48.2935347587383,175,-3844,397,48.9612225352699
-996,3857,40231,-3135,41053,41025,44.03814869295316,47.453373158781886,42.39141349878467,122,1188,-155,41.30813316860906
-3745,2086,41326,-486,41762,41647,42.44805926054604,42.299824518817765,43.70242448080738,877,-507,3205,47.43753478277577
-2684,-3812,40302,226,41439,40042,42.84006884421417,43.46570776412929,49.79498115053646,-2792,-2690,3653,41.25143062876898
-1842,-875,41564,-1324,41958,41037,46.6628398646307,48.21149760672716,49.89485442774635,-3607,-1410,1114,47.01565552302834
-2483,-875,40830,-3448,40375,41248,42.923893583951546,43.917266317045566,45.78342480581744,2638,323,-2143,45.46135020402864
1614,-3157,41257,-875,40324,40064,46.14772204949198,41.47150472478267,40.668733333354815,79,372,325,44.31932575671909
3308,1089,40356,936,40844,40098,42.70358671833044,43.803504312108316,48.12643887703038,461,2551,48,47.220044042120676
167,-531,40653,3396,40943,40312,45.996347223983435,41.188610255672515,42.234317624281424,2232,-3067,2202,42.30047386801742
1189,-1298,41633,-3670,40685,40750,43.684850209060954,44.32801337402739,47.857311691194965,111,-374,1575,45.065326539578855
-1032,2446,41593,1669,41458,40933,44.55016550291006,45.862346837063726,43.741750010567785,-3889,-637,1378,46.64090243317843
1995,3258,41412,-966,40332,41817,40.07870728088663,40.491002967168725,46.118054819150856,-2651,-829,2800,42.02006574280323
-3514,-723,41001,1072,40528,40274,49.20052625757363,48.42229240721785,46.39647839611884,-1317,2784,815,41.08071751786274
2010,1410,41779,783,40737,41507,41.61608951060588,40.476064299811156,46.429855776677556,996,317,2262,44.18741210243778
-166,-2513,41105,-1470,40403,41268,40.762495716180574,48.42977873052642,41.764881328877784,1491,-2967,1325,45.76223565949617
235,-3551,40735,-3333,40263,41737,47.847932823857505,42.678378931846794,48.37669440278001,-2920,1303,1721,44.52356048389988
3774,-3770,40084,3776,41686,40746,47.36988787948733,48.1511072092592,42.118261344420965,-1792,-360,3578,40.059824654861785
2908,-3720,40032,-2346,40148,41507,47.95071672197953,44.06413261302293,49.12297324119507,-2904,1740,2558,45.57936372574393
-1563,-3346,40002,606,40289,41685,42.90696556818419,49.69851143012326,48.58596081299602,545,2244,-2261,40.77617612127402
-2924,-930,40077,2723,40757,40165,43.798275233628544,42.35967192267909,46.67988202174146,264,-2434,-1717,41.885456187055155
3626,1921,41339,1139,40354,41152,47.67355457041553,49.851706103924975,47.33444608480578,2471,1390,390,43.660921846316626
707,2741,41451,-516,40198,40146,40.41749461042585,43.29841649476503,42.96657508115983,2095,-2826,-747,44.059690446751866
1312,-94,40172,1761,40318,41499,45.36811466448126,44.67191824757182,40.721106146088985,631,-935,-1385,45.92798498973663
1337,2313,41088,1914,40602,40933,41.2546052250363,47.029363608589854,40.97262145331347,520,3900,-1577,49.5435180153355
2164,526,40576,3149,41236,41345,47.03560569263763,45.640633717085606,41.2417229378415,3729,-2904,-835,46.46927903529784
-320,-2174,41241,1088,41161,41747,45.11882302246135,48.859821680488196,41.676632811618845,3580,821,3550,45.70590612517425
-982,-824,40254,1636,40158,41607,43.98103522230546,44.6220323799782,42.55434746891089,2667,-3109,1150,48.444046053949464
-2260,-2614,41810,-1994,40790,40409,49.97584492613515,49.79763020819568,46.49954501762313,2025,-3487,1443,47.12287932240868
3173,1373,40941,-2668,40047,41825,43.35575444280169,42.76195488373372,41.534349974164506,-1910,244,-3360,47.22828080884524
3112,-2189,40668,3418,40578,40318,46.01785289825462,43.58528775689478,48.07442341142401,-981,3922,1298,41.199482426839104
-2111,106,41397,-1606,41248,41483,43.69668549424123,45.01796922672309,48.51124987090405,-1085,1818,779,42.54470593097969
1803,949,41536,1238,41522,40414,40.324037223507226,49.8298434277919,42.48769087511862,-3921,-2916,-1619,46.64239966774166
2999,-102,41927,-2549,41494,41906,41.144435774041895,41.04434272494303,42.08190888408012,-2797,-393,-1588,47.222951376401255
1676,3899,41209,-61,40138,41997,41.640751814083714,43.65533553432876,40.77756491509855,651,-1510,1197,49.66460769687825
-908,3219,41990,-2664,41730,41635,40.90716421416233,41.797586045057976,45.564447468996185,-828,1343,3307,43.567073070787465
-614,596,41613,3324,40534,41410,42.39600175872264,42.233873151588895,43.50002265371316,2889,2288,-1962,43.45013333345519
336,1891,40528,1576,40135,41355,44.1898298975738,44.32544154578202,49.317208365522845,2789,-3428,2814,43.15999039432411
1569,-1629,40818,-3700,41248,40884,47.732793455246956,49.313637001206274,40.37754157021014,-46,198,2878,42.944878240314175
450,3300,41260,2318,41458,40152,43.63681727341191,44.12158831643045,49.86041515061598,-1165,179,-2745,47.31433465411067
-2351,2092,41256,1722,41544,40686,42.831570888328685,43.386146117239804,49.093549733698076,2135,-1804,3694,47.927257370009734
-1403,-2962,40997,-2762,41464,41993,46.47520493445907,40.194797232037246,45.28883565794527,1461,-2485,3167,41.9396869756251
2629,-3943,40174,-910,41186,40982,47.30209102846839,48.64213793957603,42.64938067006704,-3905,3767,-1675,44.37296279737971
3415,2266,41891,3095,40294,41111,49.5229524888365,43.25407200215322,49.77060829488964,-151,-1994,-1282,48.30067475341342
3481,3436,41810,538,40471,41760,41.71692644425499,40.031617866181406,46.942998668508096,3261,-2124,-2957,43.71283953614727
-1903,-3627,41424,3462,40777,41736,44.302126716276426,43.1988941121148,48.63367365064616,3380,1138,-3636,49.75897618910472
2368,2712,41647,47,41448,41592,47.51902341463913,48.8924193395933,46.18735084564148,-2687,-3495,1691,40.65915209551104
1012,808,41465,2896,41333,41337,41.88957992003751,43.94140914316375,46.90776993028609,838,984,-3426,49.06210126722752
228,-3116,40402,-1530,40787,41216,41.35093533154001,45.343915598753426,44.17907618142298,-461,-2698,-2757,49.311287652224
3623,1415,40519,2782,40119,41978,42.419748920215135,41.287483288377835,40.55586372330601,2092,-1639,-1424,40.50633506790882
-179,1628,41359,3457,41623,40472,47.539503763557995,43.75149394748509,48.57536667848578,-2969,1418,200,41.0843738960351
-3688,-1202,41349,-3197,41321,41627,40.369554138384125,47.024544792815604,49.53931073214312,-1067,-1226,2256,45.262775346119874
913,-244,41543,1569,40230,41585,41.238758378004476,42.90942526686449,43.68529361561371,-2460,3169,-2132,44.697048783651546
2596,-1977,40413,3592,40876,41627,47.15711134917963,41.626181575745534,45.94549394112615,2463,-509,-2141,49.44166651410859
2804,-1883,41109,-3215,40014,40963,40.186439646407734,43.01800902922872,45.18481144648659,2407,-2427,-1303,41.75631355779754
-211,1793,41717,-95,41136,41467,48.79381497563076,44.19198697614445,42.84108092514547,-288,3292,2164,47.385828928453634
3160,-2663,41010,-2446,40120,41737,48.26852500096999,46.384988789268625,41.41141203307506,-406,3458,-192,43.80479577017266
-285,1317,40323,-2660,41012,41174,44.00293348110749,44.089671394828954,45.113073787509435,-694,3299,-1575,45.301885496409874
3356,-3229,40881,394,40352,40350,40.66005226191099,46.15291861770743,46.23055237110051,-581,-973,2958,41.757259089413154
-3523,1205,40437,3501,40368,41680,42.05885755723739,44.88598884012165,41.00572078342188,850,3749,-3189,41.93157974441506
-2986,-3127,40715,485,40683,41372,43.24794563443781,44.61613991841456,41.47873031658806,-599,1254,2273,41.81082185524374
-463,304,41957,-1024,41472,40446,49.04109237398622,40.49184168914563,42.071483768541825,1734,-1007,558,48.51171203555329
-263,1664,40218,-3938,41317,41379,47.817697016257775,44.061664757736125,47.405384254898124,-2654,-118,-2696,44.165718190877314
-3782,-1301,41215,-2397,41716,40517,45.13138066688038,41.261571254648445,43.136396299023346,-574,3896,2891,45.59209109501427
-134,-973,41889,2657,41378,41099,41.27851324582187,41.63347987966589,41.968612997834555,481,1150,-3547,46.54786819419631
3088,-1221,41022,-2003,41651,40514,46.49451489560572,44.11042300026231,44.30272289223832,2167,2276,-961,42.18466889251606
-2729,3476,41676,-1777,40858,41106,45.638391031230256,43.98132782576652,46.137419167513556,-878,-206,-448,47.23326541071512
499,268,41387,18,41144,40355,44.62110641748411,45.68436569557554,49.90193424440967,2493,120,-586,42.48522805309789
-172,1914,41233,-3014,41835,40333,47.38164979445061,47.13048091723082,46.07187503998641,-2439,1353,3396,44.356550091680965
599,-3045,41371,1197,41919,40218,46.06425230260711,41.91548993568408,46.02751884771389,-3693,2809,-1261,48.727811484197986
-703,2830,41964,3138,40891,40703,42.435297481907085,41.92017866694668,46.52939227568049,2612,-730,-261,42.016208233520395
1213,-810,41359,-665,41675,41237,40.89809351047046,44.39848325072103,46.552145390399716,1375,566,1156,44.20253348211557
-1693,529,40539,-1702,41027,40357,47.101466453041155,40.78916561656682,43.121164246008675,-3569,-126,-2657,49.47851889021617
-1332,-256,41506,-390,40555,40312,49.04661064145975,43.81332499649933,45.55170259431665,-1516,2471,-1203,46.162627155885865
2415,3130,41300,-961,40545,41837,47.767227933726645,47.21117531596854,44.4766891730006,3666,3426,-1951,49.82557385392751
-3145,-3570,41763,3448,40081,40976,48.73246774679328,45.73674868043574,49.13002018998465,1910,-78,-3352,40.77532157840149
652,22,41532,-749,41145,41807,49.855342642576176,43.428138372666915,46.23714389038998,-1159,2357,1859,41.499426592898104
-2038,-3184,41551,-1017,41524,41971,41.74887275708098,48.27886143854637,49.26100995226706,926,-3544,-384,49.61333668707611
-3535,-2602,40612,2215,40061,40841,46.954369240314165,47.08989018051668,44.98285349163069,-3203,1703,-243,48.601604489158944
2157,-3804,40779,3555,41966,41062,46.80607891032065,42.09540359911219,48.99745595938452,1898,-2676,2155,49.032982725381935
3887,-3582,40225,-3959,40749,41927,49.605231118014785,40.65551176390395,42.820569932711535,-1179,2409,-892,44.94931616016827
-2082,2160,40928,55,40240,41335,46.57457726968704,41.72681447426899,43.66911921731499,-3927,2909,1365,49.29257441295806
-1880,-241,40061,3000,41207,40121,41.849631605372664,42.41837399443239,40.14991854933724,684,2179,1791,46.923669484141946
3440,-3432,41080,-3347,40641,40342,40.795481037192005,49.66701463209871,42.88622889573044,-3555,3368,-1081,43.428049001337065
-3320,-2340,40050,-1767,40262,41603,40.88027640495434,42.568644167930834,41.42351111891197,1894,-531,3327,44.530214057464086
-944,-1333,40593,-1992,40546,40740,40.95242988796768,41.013544818709434,45.6006954559528,-2822,1697,2379,42.43204709313959
-1060,-1831,41129,-3460,40571,40844,40.95551493266471,49.440637646723104,41.56427375388934,-1950,1681,590,47.62479396175139
-376,794,40124,267,40666,41175,44.75266652400781,40.30884284650859,43.088747448246465,3450,-253,-3693,49.76609906881237
706,2985,41968,3999,40637,41053,45.96405521904017,42.24857984325589,46.993350737617604,-1768,-3765,351,42.64132037010861
-3681,-1779,41783,1624,40994,41239,49.80016948630712,45.45455748407211,46.70561885363586,-3284,3838,-1752,42.7168499745318
1248,3334,40418,-2912,41080,41812,46.661035947720464,46.849136152977714,47.2220681546265,3253,-51,-3330,48.34116964855977
3973,-193,41259,-396,41252,40221,41.95953862749963,49.11246622877917,46.17921092864355,-982,197,-3137,47.28449063065854
-2531,-1219,40811,-2446,40023,41890,49.859499682450775,44.83003534111709,45.09644652406993,-1014,-3442,84,49.97029112022793
-3965,2472,41165,2671,40749,40087,45.36954673066734,42.11784595322776,48.05806699512904,-2857,499,1965,49.265786257703624
2083,-3762,41173,-3868,41206,41508,40.07606331020149,43.67182043989729,43.18768532005444,3054,-2376,1655,49.324032970168595
-1400,-2083,41292,3687,41621,41915,47.976358583019774,41.16358016248699,44.5031641874395,3511,-802,-2592,44.11241758120819
1917,1322,41679,3368,41852,40977,45.23974367800932,49.88055623075668,47.66232062721233,-3042,-3250,3661,44.77127819933698
12,-3766,40907,2478,40554,41537,43.91238118463757,49.71911590051779,46.16067063495784,1874,2621,357,43.50433828026045
-2934,964,40223,1444,41188,41001,47.17238548530309,45.94632298517637,46.34934758089339,918,-2026,569,48.59970273839188
2601,532,40876,-2365,40361,41881,40.92086465178477,47.41184975099089,40.400906927007526,1579,-2654,1044,42.08913738974405
3389,3848,40882,3493,41016,41277,43.88491809441403,45.20016373838858,40.37344089296197,2027,73,-743,47.46298580246904
-567,2113,40936,-2514,40113,41226,49.90372062668166,46.70227000304655,49.80022442408972,684,1483,2023,40.24661589601816
-3640,-3281,41920,-3514,41491,41837,40.31885482169476,46.38823085336352,43.09281189293553,-2008,-1645,1641,46.86046738146067
1006,2395,40770,-3587,41631,40146,46.171019579709295,49.52967016504479,46.020978602602995,235,3923,1509,46.982321002651005
2475,-885,41042,-3202,41496,40891,45.54517965731381,45.711639423945314,45.74729069529761,-1378,1404,3403,44.15352131336262
-3122,2268,41003,-737,40079,40660,47.496317417652186,48.40753219101021,41.27344651776934,-1148,1202,-3231,40.650834630768124
-1659,-2947,41822,3728,40749,40924,42.156714773123966,47.27197954803286,47.35629072331238,3942,-3147,3629,49.00752126422661
-1289,2536,41644,3550,40117,41917,45.52748377843566,48.253183530437106,45.868209336933226,-2873,2251,2276,43.72198702210121
-1242,1486,41834,159,41048,40605,49.33022688958658,40.49302705560407,44.160892745320474,614,-2143,2623,46.055066249815475
-2111,3601,40439,-3753,40596,41500,41.161594720784656,49.40320109300897,41.118041162782134,2333,1164,2220,48.08227279113346
2132,-259,41610,632,41098,41136,43.07098675538708,47.17941213559139,46.93245556668025,1622,-1192,-2472,48.12029234725139
-2252,2047,40798,1340,40455,40825,42.55885761346232,48.2703650655839,42.19373649980941,2853,851,-287,49.88680917461588
-949,2236,41868,3117,40497,41093,44.29626347215217,48.67913601212628,43.196688186497674,2557,-2972,936,42.14863143804821
-2151,-2115,40960,-2371,41614,41574,42.89026375727633,47.20879629893746,40.543199306336994,3184,2468,-3092,45.05189855240745
-1093,781,40960,2809,40032,40873,46.69790294136052,42.00702275268601,48.73816874631176,349,656,-2477,46.63231999277551
