accel_x,accel_y,fsr_1,gyro_z,fsr_3,fsr_2,ultrasonic_1,ultrasonic_2,ultrasonic_3,gyro_x,accel_z,gyro_y,ultrasonic_4
-1238,922,58664,-1948,59270,59370,19.520419464313363,11.458047317292396,16.245038120667648,-1217,-189,-541,14.161051222634947
712,128,59106,-569,59436,58984,14.9403957950155,11.550363165409857,16.996277661858795,668,603,-530,13.50412319376155
-568,1424,58805,-1475,58413,58754,17.84062138856894,13.650236626317831,14.702482344018305,-670,1901,-270,13.832836343556671
-1136,-544,58267,96,58526,58186,17.96137136272085,16.2073758308745,10.051526832838135,1116,-1515,-104,11.614457725060495
-1638,-502,59215,-1972,58370,58963,13.19024548447943,19.839205059187496,16.844059922280024,358,-330,-1655,13.90306391708252
1413,892,59871,1941,58844,58533,17.895703034679784,12.044464236168993,19.463466408576842,1279,114,835,18.507030321214657
1783,-311,58596,583,59375,58093,15.994202154552681,14.941862848395708,11.863596017231394,1984,-266,-322,10.800395912588616
-1743,-752,58552,-38,59906,58344,11.365822345263307,16.761113996929232,14.445126643794984,-282,17,-1254,16.596307964435336
702,-696,58364,1915,58247,59545,19.57757128230812,10.03990945147586,16.41237058571899,-320,-1375,-31,19.56552262271255
1132,169,58069,4,58846,59238,18.238294215907555,17.133121799050272,14.087386532607624,-1441,-504,-370,15.814529665866134
-930,-1347,59304,-907,58672,58182,18.08495901539658,17.77687502500649,13.224047062438155,-1672,1757,-986,13.595456238903637
-48,1505,59386,74,58199,59780,15.703647025937489,12.180997996485598,11.728616905888499,-1065,5,-929,13.422662814260761
968,-593,59906,16,58164,58874,18.263877954455907,13.421603409659792,16.864612692175353,1085,-297,-748,18.155056756094613
613,-439,59849,-1796,58874,58507,14.422195248464908,11.933793770053928,14.857374672197988,764,1950,1403,10.326190509715724
792,1484,58847,52,58272,58752,17.783819134801806,10.910181845066461,14.078638878316099,-513,-769,-441,17.272205898722213
-1648,-255,59013,423,59034,59740,12.092723052629227,14.71247345082793,12.212247864462283,1127,-198,1422,19.638780705982363
-1403,1168,59366,697,58829,59946,11.506413150694174,15.890801289547479,12.374982841316479,-1907,-222,67,19.845008902296726
1275,-1484,59831,-1375,59573,58302,13.871382606242241,16.779997507659083,11.854518576328012,-1302,1482,-754,14.244953770665909
581,-1208,58987,1428,58309,58851,14.703200633594221,10.895871195694975,12.920264711045327,-331,-1714,-1151,11.301714196195556
1023,-176,58892,-407,58108,58642,17.800133688764603,15.308102095850746,17.913401890054327,439,1727,1005,15.346642278071531
-995,-688,59741,-1953,59994,58152,11.574031362861398,10.662528207827522,13.78435584395024,455,-100,-709,13.23896880261684
-1817,1282,58136,1453,58441,58734,11.685640249470044,15.377621425469048,13.447282027327336,1198,-1924,-343,10.860352895477554
233,-838,59491,-131,58081,59604,15.327612739096658,17.049746309572967,15.121170228479466,1498,-97,1539,16.870334938996958
1790,385,59166,-1952,58228,59419,17.479987222639615,17.388386829572678,15.053532616054666,1137,-60,1878,13.336680382152647
-646,608,59964,661,58434,59763,18.648504905705604,18.78544576282785,16.849580707602755,866,-208,-185,13.939992775927859
645,-788,58607,-734,59186,59226,19.908645547575965,11.23077135646412,13.642456252988051,-1416,-1661,1959,17.162541861898116
1784,1316,58030,1020,58002,58568,17.95672721661626,18.97823683841056,17.749873424891774,171,1364,-1090,11.217167268037429
-1597,-106,59563,1384,58455,59445,19.570222625992688,14.096161842550714,10.284308673655099,-1410,8,133,10.629044987118194
-1126,-334,59930,384,59380,58598,17.262747807741718,17.506122821678503,11.481530466724436,-990,-282,-389,16.959664094544443
-1668,1459,59732,-1577,58818,59306,15.206183529811636,18.207777699780962,17.943013229195877,-1546,1400,590,11.559909343912919
-216,-1316,59813,1163,58591,59353,19.793081755319474,11.167841516954667,15.056531373428026,491,-973,-220,14.02549010544787
-1980,322,59275,-230,59156,59564,10.163506798791692,13.418612986938065,17.89136039604916,1877,1866,-993,11.030423550132685
-577,-467,59502,257,59528,59086,15.204657659738267,15.619729606718327,16.10625353648488,423,1261,-1598,11.49149367310699
-1776,-805,58675,622,58286,59764,17.942308471905356,12.848233909800799,19.030905528863748,-1140,211,1515,10.008792081171077
1283,-1954,59864,1041,59377,58130,15.437912342894245,15.368850248618145,13.952880320614252,-437,-1864,960,17.470947599235238
1188,-316,58558,64,58010,59755,18.258146902153058,15.875297505933624,19.985268614124855,68,1803,-1722,13.086391302862381
-918,-601,58699,1027,58939,59562,18.534762097424455,13.349219946460284,11.033526644833959,508,1635,-1836,14.5090621322342
1299,1031,59960,-1214,58918,58119,16.301068714381472,17.733777508807048,17.731028192568168,364,1079,-1605,13.277305183967425
870,1930,59495,-798,58773,59601,13.364773429999268,18.292937450690882,11.071546091593452,-1231,1799,1469,10.3545124229522
332,1435,58956,1237,59610,59108,11.557920996302283,18.507211916372796,15.571132482733436,1332,-345,-348,10.254848591319357
-400,-1317,59311,-1313,58958,58329,15.927192407310248,19.361978667744097,16.630075394962432,1827,-114,-1884,19.698526216977864
-1621,-559,59816,1524,59246,58545,10.785591595713704,19.32076021508483,12.5103318670642,-690,359,1594,12.871729154959556
106,-1737,58624,1091,58640,58797,11.672852582355347,10.490899726084969,16.058663936134465,-1773,1806,504,16.962411324691473
-1924,-677,59339,1058,59599,59312,13.547216004761378,12.745052318701518,18.075382877839264,-651,1967,-953,10.930112592024173
1512,-1225,59155,302,59794,58495,11.1671684472412,11.947413094322602,16.013827776475644,959,-1925,-351,15.456577586092763
-1358,1489,59818,1214,58753,58304,17.3254152288591,11.272668390888892,17.632094563107227,2000,-1312,-1594,18.289905547041396
1038,-1971,58463,-446,59520,59608,16.037502827248126,18.837223013179553,18.93836663424447,-1942,1539,-1694,10.917244920692152
1355,-1392,58807,1611,58547,58545,13.206155574487308,17.436309843902084,16.914058224179755,323,-1886,659,14.198349099098701
-1275,1726,58563,1907,59688,59496,18.35543438345239,14.869816443756292,13.680670527100398,-505,-1747,-1909,18.432911784510374
995,1548,59532,-1572,58338,59264,17.888339762467382,16.972178147547368,15.381654147406794,-1959,-1647,1571,19.077146775766586
424,-815,59340,996,58616,59262,19.64103118894097,11.723282753655317,12.313518340853626,-1787,-1206,-937,19.349969352027966
469,1474,58241,-757,58806,58946,18.52107916231643,15.854778633763837,10.802602421123694,34,685,452,18.245459731702503
678,-339,59112,-1145,58328,59467,16.46138057182258,14.666693774676085,19.849782941411224,1363,1064,308,19.92156558148195
-159,1934,59165,-536,58141,58519,12.111265300196333,10.360757904533077,11.455732520000499,-925,-1789,1577,10.282872068893644
-1358,873,59249,1865,58101,58250,16.956073332750716,11.397345197649633,17.9807378321809,1164,1093,-190,13.093824347552644
1503,-1911,58188,1017,58226,58397,14.669651361149025,10.16304430582863,11.04093967537727,-1186,1266,1795,15.284898398828492
1055,-998,59325,-1823,59576,58445,13.927787429116272,16.21544377757645,15.912641719407713,63,-421,-1076,19.378645243151674
1922,681,58898,519,59964,58024,19.244392730571306,19.473560473678674,19.144358853217103,-221,-762,-473,12.600709486361387
1047,1882,59576,1856,58115,59261,13.492954968854233,17.680619803340782,17.207515966753277,-705,1635,-234,19.918987695295662
-626,1328,58865,-1703,59920,59385,16.83013243605913,15.457090925373063,11.446429245529302,-1933,-1655,117,16.258082888929962
1174,-1469,58260,-664,58826,58237,16.24244925036496,15.014383886999312,11.09245637943062,-473,576,1685,19.720648808285382
316,213,58872,-1616,59499,59842,14.679127998456494,16.51563546322455,12.469101648522882,990,1836,521,11.757834552845388
468,-1871,59106,1726,58857,58139,13.091809900565938,16.337453938568043,18.379335883244153,-580,-585,-1419,18.774770592452146
-934,-1254,59237,-664,58323,59567,10.644832375810786,16.0556081564263,19.03906378337752,-623,-124,-773,15.732753051589743
-198,-1423,58039,-1872,58070,58193,17.86123606719981,18.23621628226789,11.317304049964774,-663,57,405,19.8985542591643
208,-1738,59115,-1060,59547,59370,14.071886065255192,15.56204182485249,19.337413086985233,-874,-476,-1015,14.787821183266065
368,459,58544,803,59310,59017,10.426243497423966,10.65469203404158,17.696789098666372,-1161,1703,320,11.641463505901978
224,659,59982,-1142,58696,58754,19.99263649492608,17.78774341147159,12.224396339579942,-1639,-1934,-1306,15.305121366505325
-1088,-295,59289,1330,59323,58899,19.82267403246454,13.81526028655194,12.16128748096305,1058,-1695,-1539,15.589763409856126
-947,-56,58979,-1248,58141,58234,17.466789901860295,19.08848101142204,11.325104501200801,-231,1546,-1647,15.363830948976407
917,-312,59942,-571,59641,59317,17.571709450963606,17.438502980502328,19.57216615882055,1225,1032,1425,13.638402286249267
1637,-1606,59136,264,59329,59820,15.888283830626456,19.81183111902326,15.081561214299995,-1097,-1787,-160,17.16352571350465
1630,771,58744,1057,59304,59935,16.164805348834022,19.221084362134405,12.649344985594412,587,-1432,-1175,16.97122568440968
-610,-1074,59934,925,59534,59701,19.292765766927605,13.00267030271218,15.265463460676632,392,-779,130,15.34701666252479
219,-152,59793,515,58531,59188,11.683062337129812,16.998451895205143,13.80654858815429,-700,-978,-706,11.631012887915245
654,697,58541,-1637,58445,58331,19.303335323106097,10.939401054267252,17.543113054384538,-1753,1915,408,19.195671206840064
1065,1712,59495,-626,58646,59521,15.423434171111532,17.868703015228178,11.258390760205623,1599,1614,-748,11.494273425931262
1395,-771,58192,1725,59192,58319,16.974687870333497,12.296119381243582,13.080882312955785,1930,-25,-230,17.412656000595202
-1424,-1412,59438,1296,58094,58041,11.207086896140034,11.504489682597965,18.222237195233213,-717,-1387,-1579,19.005362649814707
-720,322,59385,6,58036,59728,19.944730280207935,15.38740151518109,17.963817992502673,1221,1939,-1918,15.431678470533452
-236,1904,58400,-841,59462,58628,10.284825135330149,12.56142582473623,14.463229527504957,-1435,173,-786,17.37095252024054
185,301,59243,-73,58317,58630,15.98510927339921,16.39069363603362,17.138457191334982,800,-1584,-475,14.708162247038842
-934,-780,58598,449,59184,58273,10.175321161180435,13.68091103902876,10.97722681459466,1962,1342,-204,18.077828268380138
517,-782,58614,-954,59381,59865,17.43906560732073,14.266805285900642,10.924038476946098,-1069,-97,-1080,13.637072122658157
1360,-235,58426,-157,59263,59783,13.074906370605444,15.414213619647667,10.145599551421968,-30,-499,-1217,19.522310892409138
-1256,551,58911,217,58315,59271,14.478593077632802,10.391758749589169,12.856813514469708,-1942,204,1197,15.185245756006985
-1693,-1430,58336,-539,59257,59873,12.904095268923488,10.133789804998004,14.608557919668062,1239,-1857,522,13.642860490893685
-1297,283,58416,-1036,59063,59444,13.97928975761898,17.841243879189676,11.02445199032079,131,-1127,344,15.533394982246074
-921,18,59098,-88,59679,59691,19.735974508519902,17.475812410576424,12.898132085025438,-1890,142,1047,14.414278120302926
-550,-1262,59825,-1588,58927,59445,14.040647546632282,13.593106217558235,18.981156029245753,333,1966,1600,17.796335022923564
-1186,1484,59383,216,59340,58702,15.471345553710353,17.104745373940418,17.730748962828038,-308,467,1336,11.43324775845312
-1197,595,59439,1049,59828,58472,10.8411173479337,16.390056393479647,11.413925715443913,1954,-165,1130,13.277917370250526
1453,-1935,58660,-1622,59977,59398,17.60145796667243,10.80296406576836,18.840288469148675,-279,-463,60,14.001138375514582
160,-74,58830,-987,58576,58261,16.89477623520031,11.071729564536398,17.074739892322135,1078,-1772,-1955,14.222046490124479
1458,-431,59803,-42,59978,59625,17.099798884285242,11.586375712886841,12.348407882127102,-1590,-1819,1452,17.264348285541864
788,1730,59580,1614,58478,59133,18.790375259886524,14.011326948585644,17.97852098099925,1754,-52,1951,13.238109301427844
-1537,-1151,58584,-1221,58748,59268,18.369818302456693,12.59708547572774,15.162281207161147,1209,982,-1713,13.771698967273018
-145,-139,59662,-1512,59771,58581,14.861283945865821,18.970246496366784,18.107392472070387,581,405,-1908,16.186507959594167
-1982,-905,58786,165,59035,59539,10.121776415539795,19.927387045353242,18.816841572505105,-650,-1041,62,11.330494641244606
501,-1790,58614,59,59763,59067,14.956445436858917,10.908340790948706,14.63559293860561,482,-1828,-638,15.006303621959015
812,1501,59635,-111,58911,58876,18.566185821119717,11.006263811936721,15.060609939145738,-755,33,1764,11.871341459821128
895,505,58764,270,59483,59926,12.071225130800698,17.164023183580582,12.322355839816153,900,1452,-1504,17.1097508461623
-1944,1191,58265,933,58612,59502,19.814796655237704,14.454307499361928,10.025303606251514,-1947,-1276,-1487,15.06575367977554
204,-473,59789,-1994,58083,59021,17.11254063397474,17.614195390748428,18.128871499779017,-1415,17,92,16.641228406804103
9,1122,59452,1153,58083,58012,16.355821860738946,12.042195096103864,19.857074122302528,-781,-493,-1881,15.894733693423081
1848,-1938,58111,700,59070,58893,11.748187761412899,17.51518020262894,12.378096725856608,-860,-404,711,14.495742051630423
171,-353,58273,-620,59397,58292,10.917668034276996,14.041260123115032,19.71861862026828,-1962,-1880,978,12.907931511605685
864,-212,59045,1570,58336,58912,18.952799008966934,15.963034322634774,11.84517007426264,1517,872,-1604,13.307065618185678
639,859,58749,1320,58129,59652,14.282368321042602,17.71663231069599,18.686859759902273,1213,-513,-404,17.839383637190448
-1412,1325,59629,72,59406,58323,19.52479487286977,16.293128404009085,13.763060044479033,-1343,1694,-1448,17.72543110811821
-61,-182,58247,-1156,59365,58443,10.548991491145534,18.26927270456825,13.315716659315488,1667,547,-1871,10.865402756380982
-126,626,59066,-1875,59896,59908,13.89238682247445,12.90032478055068,14.118307592400146,1824,-888,-824,16.909645759824734
1006,-1630,58335,1460,59238,59217,16.227473664429542,11.52362262913599,10.826628972459964,58,1807,691,11.45898701814552
-1300,1344,59613,-151,58994,58150,12.367521298240185,10.467870567590897,14.976733332886795,-707,1623,517,18.628496176029017
-1822,-724,59493,79,59721,59425,10.048916374422731,13.527698239192507,18.05642208494141,1729,508,-1381,17.812096819972272
666,1605,58774,-1962,59429,58682,17.085446570621535,11.337770683905202,14.729895153536727,1151,1733,-1046,18.917963990353236
-142,-1387,58178,-104,58277,59644,16.505420414300993,13.980046937884754,19.84686892883134,-1410,-246,977,15.13277908248422
-1286,-309,58306,-704,58172,58722,19.11942275547711,17.332817450441453,10.762791383700865,-1552,1565,-375,14.183901826891754
-1585,1328,58636,-1072,59333,58483,15.498268311176435,18.308094905225932,10.873291055549911,-1489,-880,-1466,18.89458705588492
1302,-946,59289,469,58186,58177,19.030273822531907,12.823422640954831,18.12780361991858,-409,381,1840,13.937202780602998
-1729,204,59023,1938,58480,59939,15.010928503679038,18.41850731562385,16.121073794416496,-991,345,1405,19.722360719379026
-1368,-662,59390,-1442,59419,59713,14.253750976937578,18.93313847381608,12.27613534456135,-1700,34,1126,18.426889508339475
-1427,-326,59797,-708,58353,58609,13.749921757100797,12.466007846806033,13.978077060904793,-854,922,1575,16.22287872081167
1881,-1465,58332,1830,59409,59650,10.325747873048627,17.394964478282695,18.931176950133974,-1092,-359,1443,10.208028661744587
-536,-1143,59998,49,59005,59978,12.729103833247553,17.046039674400834,16.494547944288833,-833,737,-674,11.104952734028496
382,-843,59085,-182,58115,59991,16.569142718068594,18.789207819916598,10.489291718591854,1953,274,-918,10.119202802009811
-456,-1438,59510,-369,58335,58862,15.851169866958433,10.585330153969034,14.470077455619997,-355,-1007,-1132,11.395551092510116
1678,-55,58960,1809,58745,59046,16.223171149964873,14.060031636442645,10.175678245697448,-1487,-403,-1128,12.630761164136162
1932,589,58176,-1899,58697,58833,16.72225806996422,13.169762253914847,11.199263131060217,-1719,-1191,-1451,13.891216686897552
-1257,937,58049,1160,58114,59780,15.705964170136202,19.22463946116316,14.315913171774053,-974,849,-1295,19.779283746967696
134,-1922,59894,-130,59207,59939,12.023751279156922,10.523441045657178,18.322229531135385,-1895,-263,470,16.480305244346205
-1636,-1393,59439,404,59289,59752,11.851670974020573,13.901178633453522,19.751901431848037,-1622,456,357,11.625048951197176
31,-1110,59900,-285,59445,58381,14.908319194610874,18.226408245918435,17.113969109060232,-1329,-87,142,11.247483854457462
606,-1289,59071,-329,59465,59395,10.849845600716101,12.706401105530842,11.890614509460043,-1645,1107,1300,12.26224316123974
508,1407,59510,119,58378,58917,14.891458617289278,12.100143036137945,19.116559036585898,1816,1075,941,10.481608652811104
1434,-151,58827,1626,58342,58721,19.848148583423114,17.610620491165133,19.655522837263018,-191,438,-269,10.480406744349327
1864,1920,59973,1038,59730,59343,16.22205277852928,10.99954163049342,12.93197421401448,151,833,-1881,17.447987981485287
-683,-1670,58092,764,58775,58772,10.945295504137363,17.122626593916806,15.36478386861889,-1746,1796,-1897,17.4055307229838
1531,1948,59192,-1942,58694,59169,10.526839020847833,10.937732612277433,14.798029695454264,-1894,-898,-830,15.382453669615437
-913,617,58662,-67,59272,58862,11.026270322635721,19.654070351152107,14.440355160363577,877,-677,1082,13.817398586444547
-672,1569,58317,-1002,58346,58011,16.497174851493632,10.55604095697216,17.712347458996494,-35,-139,154,19.527855154305
1222,639,59108,-517,58664,59132,13.088660472333617,19.292000646802727,11.186672972051305,-1934,102,-1895,19.795448075248572
1908,1142,59490,832,58161,58432,14.500187860118352,14.496595111755557,10.482301663996921,1224,652,1940,19.746675586416803
1869,1604,59655,929,58066,58771,15.54165311396454,16.74600202940054,10.839828675098921,1789,656,-1599,19.952474647105838
1433,-797,59774,-571,58741,58351,14.039061639653664,13.673227519602634,15.11766972709524,-73,-26,1752,10.076686458354436
300,653,59475,-91,59692,59525,10.901182816870515,12.837480737447173,19.126830463989442,-319,-95,-645,17.737078168612776
1480,-1994,59531,-1181,58887,59555,10.571638614806231,13.288570853119019,10.764181989759722,1599,-580,-1217,11.650006736616923
-1475,1092,58462,-1161,58327,59894,14.17504056920651,13.090006736782692,10.624695013124699,-924,-1357,943,13.083135176568108
-799,269,58060,868,58707,59015,18.130047337927532,11.058687222320147,10.489787784065808,-1430,1303,1899,17.35177026764559
437,-268,58546,124,58124,59973,13.387305718744217,13.5817610504098,18.840662578210058,295,-1603,-1474,10.375106756912228
362,1787,59683,195,59984,59626,14.517861375532092,15.27027838337031,10.877190810838416,1108,109,-1562,19.465901766839195
-1513,-1664,59403,636,59337,59348,13.746769995628274,14.657640455831196,11.887180039525303,-1829,-733,1579,13.724616033795831
-1797,1940,59389,1550,58177,59760,14.171833333869966,11.381447059211444,11.449484754368216,792,644,-1960,19.51409467590148
1538,-1168,59684,-517,59357,59649,10.147929028129415,11.576477574729587,13.313623331163187,-446,-1775,292,13.44388002333676
1402,49,59936,-663,59052,59045,14.706804848455315,13.501534282352996,18.674999472525876,89,1593,383,10.278407738050152
817,836,58489,-436,59618,58258,15.13239403305995,13.697383811239302,15.585195187791244,-1612,981,1923,14.87566581605215
-512,1790,59890,-1829,59082,58987,19.45805013079307,19.555704829454967,17.030484396263663,-1099,-1295,-964,10.909513986459448
-1210,-107,58834,1068,59610,59252,17.966383840836944,14.344156058762513,17.3396393299116,660,2000,1439,16.47814522942035
-325,-261,59711,-1621,59858,58891,13.761761146211143,17.798747655227864,14.012291812818056,1875,1614,737,17.539543386791532
657,-457,59010,1024,59561,59613,11.020170194224034,10.804508442402758,15.311824172422774,-1761,1804,-1272,19.665134510576827
-529,-1619,59472,1109,59405,59706,10.748763343338375,14.771353147413986,17.02937912522984,-973,-997,-1878,14.338927895926005
-1551,-1156,58992,1699,59847,58355,13.114945309120337,15.638356223358391,14.667474675651093,-1792,-1514,235,12.984476103035805
279,681,58817,1143,58989,59155,18.366308942649884,10.294736307308982,13.735635309081243,-1788,1471,-1084,11.62933001412306
-1734,1654,58338,1524,58961,58331,14.35124474319894,13.75358572032593,18.218986521465986,-1836,-1718,1289,18.379430786224138
-722,-617,58025,1581,59873,58651,19.865313296632607,18.89220621502036,11.55977146465754,527,-660,720,13.889216804187683
631,-1930,58148,-1550,59490,59884,18.03590066150067,11.451850929794587,13.792064910700681,663,1640,1904,14.729535199883966
423,63,58283,1280,59883,58117,17.557521364161047,13.67794988116708,19.42078166529611,1941,-977,-1518,16.27760551650323
-1490,-1207,58243,-312,59079,58354,11.9820871323097,10.570922255249984,16.538732066385933,1099,-1013,750,14.879757832993992
1595,-1898,58437,-1179,59009,58566,15.01355957097515,17.883717411643275,12.810652132544323,908,1577,483,14.479089090676577
-1988,-105,58116,72,58096,58098,10.973930794064056,16.804356433957317,16.89028680126118,1408,584,1959,10.804406919463831
1361,-1788,58516,969,58195,59779,10.009649757564306,19.681795320915285,17.362661848195003,1389,-123,-1587,17.97253861202766
1262,1527,58650,-1762,58574,58956,10.998500842173545,11.022465185318099,19.092365446498114,254,1405,863,11.102550128167207
682,1224,58265,-1203,58415,58630,14.094027682423324,12.455624254698938,10.025985016558046,1912,-1625,-1274,17.54945547562411
227,-300,58002,-505,58849,58751,17.016431579175205,17.311534635170258,19.0282834865811,1312,-1152,-1636,11.725091941957887
917,-415,59695,1166,59449,59822,12.778128184985198,15.241807820633255,10.906346751971885,-754,-487,-845,14.942501280962206
-1456,-443,59538,1943,59241,58413,15.600961780240034,19.104525605892857,12.993810465673517,1476,1683,-1904,17.186849282637706
-589,392,59762,-555,59290,59144,17.289200475804858,10.480615747839543,16.042907374196425,1340,-1530,216,13.791908216175228
83,1278,59607,-962,59530,59633,17.05479077353744,19.90205977269695,18.841018644667308,-514,805,-1560,15.257446595639319
-650,1857,58745,-1051,59858,59280,10.14635045577223,10.081006130964367,13.070108650024297,316,-1142,267,10.158640390293836
1253,-76,58848,-1235,58951,59547,16.425532504700566,11.428787875326375,14.079064996309652,83,669,-746,16.686451777163526
1294,-188,59007,-211,59378,58207,11.403683725274249,10.790588462153849,13.230283332059642,278,260,-1103,10.40314035781507
1132,25,59573,-580,59570,59693,12.464286455754952,13.586797869307134,14.364629796499557,395,446,-1163,11.825579581484849
-417,1051,58650,-1572,58734,59637,19.521653261990792,10.536442820436031,10.809339136325745,-1386,-279,-1822,11.261105698618689
-748,-375,59163,-755,58858,58067,19.565092707442663,16.204616547877702,10.465395795766872,1884,-1461,-1259,16.224837530704132
1096,387,58544,-590,59784,58178,15.79991308261342,13.418696709201415,16.516323530850492,162,-672,-1048,10.698946055377391
3,861,59823,1312,58235,58049,10.942236944711526,15.855771036876652,17.714209808204302,1653,407,855,19.25619355773587
267,1452,59265,45,58445,58886,16.256647249175593,12.766827595799214,15.429565534133573,-451,1615,1966,15.590452317017965
-1244,-474,59446,629,58559,59974,10.745326897176747,10.39953050131015,12.144533901764255,119,-1695,-943,15.979449331940117
-1332,311,59452,1342,58069,59174,12.643625407818485,19.685288397820447,10.208444238062658,-871,8,1250,18.54645767223316
1766,1420,58111,1299,58924,59166,12.155789488720545,18.52109856549275,16.636982199797693,-1630,499,390,10.433295847939569
275,-661,59027,657,59435,58551,19.949182634970356,19.430268923810495,11.842290525100712,76,-155,1414,10.749785266073035
-1386,-2000,59026,365,59499,59855,15.000983377893098,14.41177695086693,17.779554083033037,-1807,1647,1498,13.914211074554014
-1225,714,59442,1645,59558,58001,10.893587199348937,17.69307757930258,12.077843886973508,1882,1891,327,19.57094530627058
649,385,58722,1698,59698,58456,19.41982795308138,11.647602945732599,13.453523417734186,1047,191,-441,17.28493961760512
-1615,-182,59307,-110,59038,58362,17.592361914397735,11.23778764027229,11.039403868569263,-1200,-1449,-1456,15.034470868622423
1075,264,58818,277,58202,59996,19.526595955156164,16.840174952491296,15.495226238724342,1535,639,-731,10.663058619305598
719,-1581,59527,-1280,59971,58331,14.505896134158803,11.220399247427459,13.329572732155304,-84,1771,-880,19.40025965321341
1694,1830,58118,-1674,58148,58565,11.671952835988185,16.278963419606807,15.65697114488195,-860,-565,167,16.829773767601456
-750,622,58661,-653,58407,59934,15.182503735807298,16.04742606357569,18.801381666188846,1866,-930,-1448,17.52445571786766
697,396,59750,-643,58044,59865,16.2069015336345,14.490979631933985,15.161451788205117,657,-322,1425,19.27846013683599
499,-1609,58603,-1002,58942,58470,17.061079290922642,14.90314505963854,13.333720930466768,800,1216,372,13.409298797308292
-183,644,59261,-79,59362,58497,18.86916698746141,15.557664662282042,16.78074330819757,849,339,942,19.03470987156689
1676,-1867,58587,-337,59234,59974,18.459661562115592,10.201737247555648,11.044142601313022,-763,177,406,15.690695137703035
1674,-445,59316,104,58771,59840,18.96105375842906,14.353056320725862,16.618626233395037,1115,-1829,105,18.369703432546522
-314,1313,58745,-1875,59970,58220,19.804743977916104,13.280448453790175,16.809280730026245,689,1375,1799,16.970374442519457
1196,-1467,59717,-397,58614,59333,14.305755607313435,15.182552650075145,17.903179784612387,1423,1674,-1521,12.847093224743205
-460,-1321,58850,-774,59040,58557,17.831912208858167,17.0203242800506,17.204220917369486,35,1548,-351,10.456970184478797
1125,-976,58305,215,59095,59028,13.892339621002836,14.774072467626642,17.43018813411921,-1022,1281,-385,13.084150093531214
1044,-1905,59699,-1799,59969,59496,17.420040807363414,18.28679832623903,17.082564253250812,-168,365,-235,15.849056197175875
-991,2000,59380,1014,58007,58736,14.213971749971577,14.653582150600077,11.461582126404359,-1977,-932,-1358,17.906361337625153
-305,-1611,59839,109,59522,58209,19.00640458220534,11.788922821490804,19.792014201792927,626,-1586,1671,10.568503212356381
-1546,-1920,58148,-333,59377,58118,11.539820221414601,15.598869972314827,12.221933770298783,-413,370,-769,15.676397280697081
1420,-293,59917,-513,58965,59839,15.886243865087287,10.024773180039766,14.539440559443463,282,-743,1171,14.23600033971828
-544,-1301,58228,114,59708,58754,16.754826849111666,15.473701215000084,19.611595080745587,-806,94,-186,16.655570658160165
-418,-301,59164,-29,58284,59259,13.624822942571317,13.757353995986183,15.640870987056896,1887,-656,-348,14.860300224786293
1135,236,58502,419,58421,59824,19.167744388140818,15.648469298313433,14.052920690445951,867,1016,-805,19.146547788723904
-386,1087,59626,583,59547,58479,14.370058757690284,17.912809981266136,17.392124950380698,558,-1569,1881,16.469881638796984
-1921,116,58011,-739,59615,59172,18.273442929393397,13.367892042434821,15.360217292038387,555,1472,-495,11.022903387110127
-839,1320,58944,1650,58439,59102,13.07627392127932,17.2131476557618,19.179630254744566,1650,873,-460,13.338465780530354
-1909,1365,58519,-978,58324,58526,16.253695638052918,11.794190982841917,10.152550484762907,-54,-361,-933,10.913485728802021
399,-418,58754,-1192,58553,58648,12.696491432018302,16.708586983759183,19.90559160199746,-1287,1478,-794,15.681886783867041
1430,1890,59814,843,59867,58270,18.1872813545522,16.362476445224203,11.611464026630555,-277,1628,499,14.86489715283689
-1441,-945,59268,713,58006,58652,14.328608575293131,16.38263886631291,11.187373646406112,1281,-689,676,18.325524342558587
267,-1086,58116,731,59755,59036,10.310931569055587,15.269157989027477,15.797966350129308,448,-200,-413,12.531004611696323
-1850,1323,59747,-532,59826,58326,17.9245204678119,11.024597322882894,10.344087225872716,1875,7,763,15.85111690221802
126,-439,58226,-484,59765,59022,10.537226295243238,11.435539332311787,12.999734319591996,963,552,-166,10.59126295392791
-1079,-307,58437,1707,59449,58399,16.458435768265133,12.61264542356678,10.858332471920164,-1039,310,-1291,10.593053715433081
401,1464,58538,502,58472,59266,15.910792024160418,17.082942110390604,12.794857654401454,280,-231,-1493,13.520908361593346
1007,-519,58254,-282,59853,59988,11.745529978071461,12.401095495961528,16.575783970895703,-247,705,116,10.149693783895467
1014,1902,59749,230,58027,58583,13.51693669663583,16.418988650218246,18.06877539018828,1358,-720,209,18.06974781600215
737,1801,59804,-339,58913,59785,14.723163051409308,16.134491662575517,11.92646362555229,1043,273,-1583,15.099620015380964
1849,-595,58420,1186,59188,58143,17.429217795959715,15.781618414580633,14.294984163564816,622,-1311,-994,14.876194343827382
1815,-393,59915,-1712,58759,59793,13.492353328376709,12.003535386737372,18.41391659144589,-519,-1734,245,11.093370932621525
-1686,-1399,58605,1566,59073,59774,12.689492325953324,11.276123997821092,19.33719640186659,-146,-1149,-894,11.360475913733964
-1248,-86,58265,1691,58975,58996,13.125075510073358,12.26122600509067,16.22129355149278,-385,-1943,-845,14.63686547427123
-1118,-1886,58587,293,58325,59291,10.867491042228746,10.487117493719872,13.834358851765682,549,759,1737,14.453641546323768
-967,-816,58831,1842,58506,59855,10.820669556833636,11.15098130971877,15.499415978595295,315,677,-1537,13.81201494047955
713,425,58427,-1810,59771,58554,18.506971848403197,16.966107312417215,19.438933887313844,-351,1891,-26,18.71656092714344
221,1931,59528,1674,59940,59814,10.713038933565326,17.026078507063126,14.488830676030938,1773,756,1021,12.793230154471791
-1981,500,59701,76,58951,58241,14.600551887431049,16.36949556232232,19.49301372615126,1976,-960,-7,17.029181189683563
-498,487,58186,572,58680,59003,10.41639189201409,13.379941306975631,18.12473516725566,-1764,-124,1590,14.823677630472272
981,1365,59822,96,59116,58732,11.703950717342632,13.608399435721214,15.73905823039372,1643,972,1565,11.426475680570517
-771,-1693,58796,203,58620,59168,19.97769728892091,15.319483314383607,16.36899495657961,-246,-1718,357,15.307218574259538
-1698,-515,58282,847,58702,59919,13.949397833359487,10.369557755060043,14.253770097877045,-685,383,-645,16.713145773582415
-848,-1834,59233,-1382,58997,58302,14.086656506931758,17.786932891539333,17.98097604481263,-1464,680,1266,18.465249946217135
621,648,58967,-346,59036,58213,12.704118231624076,10.597247212261193,13.746127733642632,-1107,-397,-785,12.412684812661501
86,385,58306,-1714,58201,58522,14.71247891702328,15.514916952400762,17.703356964221364,557,-1600,680,16.41403493778509
-1084,-830,58217,945,59893,58962,12.019348862466497,10.723048195168245,13.174290607231985,1521,-150,-1101,12.078304869916934
-877,-1971,58225,654,58996,59185,10.802391150712726,10.66013353274099,13.607495777061516,-1399,-129,-1616,11.470370947365968
1118,158,59543,-1023,59617,58265,14.887255695418306,19.535876119460674,11.110657080428037,-528,-733,220,19.393227665864472
-1108,-1898,58352,172,59002,59884,16.070492626706887,11.130307599821318,14.312776100686413,-564,5,834,17.050739759359864
-105,1596,59617,-1561,58034,58086,16.309713617928416,18.32727464712476,10.472486626062658,1363,-253,1917,19.297334579294787
-1618,-698,59360,-1315,58828,59519,17.300674374092758,12.11253663022796,19.018305522742317,-592,178,228,16.719428539708098
-105,1032,59160,265,58335,59866,18.80725859390003,17.15040380977012,10.883183698073797,-235,-780,-1643,14.258170897567215
1407,-1591,59706,-591,58811,58595,18.729076294827983,15.603761858914666,17.611574189698796,-395,473,1573,17.5706852935175
1793,-1052,59462,786,58834,58568,18.904983794711107,16.93706380748032,12.52603674021545,-725,-1940,-637,18.61801643692797
540,1312,59919,16,59094,59944,16.711855583678936,18.309336866318752,18.572434866090646,398,-297,238,14.173178307939274
1548,803,59913,-132,58931,58202,17.222997285953312,17.623599544248382,11.77632161090304,211,1180,1462,16.103356535292217
-1313,-1087,58181,1024,58102,58601,10.727216667361848,18.891876940881907,17.941450765720433,-194,-1988,-1589,18.23734749281522
843,1717,59863,540,58374,59367,11.625484754161986,19.744139072796518,11.342028353875472,720,1338,674,18.188928537018718
-199,1085,59568,-1721,58085,58725,12.63509037184046,14.340608023387116,14.48688548216812,1254,1799,-243,19.55905382859776
-1341,-283,59804,-1037,59081,58901,11.514259446702184,14.30756892199166,18.152471652726735,-39,102,-993,14.666479622428081
-1936,1777,59333,-984,59682,59028,16.934952910469907,11.876890704597777,15.818232673562882,-1788,630,-1307,13.971149266530082
538,1945,58040,-1431,59659,58587,10.154227137437298,17.061621563286277,18.15974650132293,-1470,-1111,-655,11.723577377129308
71,-1730,58884,1346,59399,59440,14.885558886001263,14.692595743758185,14.685586121080853,1034,-1123,1539,10.692799498800987
121,-128,59996,1443,58008,58430,14.859181560366043,15.50507093306285,17.334522815977067,-49,55,-817,14.838601161310038
-1894,660,58156,1592,58730,59920,18.66338308235089,11.65947378803385,15.931712945255011,-178,-1427,1505,15.825574153834703
-902,-1111,58290,115,59869,59202,11.299008916000828,15.945964654829778,19.41837231160579,-1855,-516,-1719,15.341654679929476
92,1252,59003,-1310,58644,59397,11.820198245502533,14.446951917412086,15.708641580187432,-99,1025,-505,14.956676411515254
-321,-1291,58229,-455,59219,58788,15.548185955179564,16.00613605103323,12.965650917984608,1425,-1906,-1339,14.207215905972905
1062,-39,59913,788,58493,58772,18.246289161604217,17.241773914274106,13.269422131293162,-1455,-444,883,13.53635924392951
1830,134,58560,550,58547,58497,14.949252681341488,11.34180213162034,12.10884472094884,-1838,1911,1522,17.72563726780144
909,-1343,58238,-689,58955,58721,15.05592648747629,11.207650177040746,13.26704341756374,408,475,-1146,12.290114160406226
-1159,-624,58270,-780,58394,59055,16.97177475064958,12.637435020529953,14.66070123318265,469,341,1852,13.71111617998398
-1150,1990,59137,129,59880,58404,14.813440791906903,19.56529435168774,15.078284268119965,-323,80,1265,16.96752112548014
73,26,59442,618,59821,59969,11.096895202497286,10.868875455341094,17.098287400140084,1302,-1443,573,14.904567231043131
905,-1947,59579,1069,59314,58537,14.01502289828465,17.228117558304223,19.844714201448326,-1606,-476,1745,11.120631273643793
1005,-1114,59872,1700,59514,58600,10.611975147349948,13.663501632870489,15.427981021705026,1229,-79,1404,17.547072192915056
893,-1203,59184,634,59354,59039,13.652659998541761,13.042485512621417,12.491915297721562,378,1090,1856,14.596324304347114
-229,-247,58912,1019,58663,58582,11.692580677566987,13.29096843246299,15.09874109349266,-1740,1533,1282,12.215068805633912
-302,837,59094,411,58143,59007,14.501853343806504,13.233838246514786,13.483931392331616,-823,1952,-617,10.35409849813979
-1496,-152,58803,-1059,59074,59418,10.317805542205106,13.953705437344777,10.777380730068668,203,432,-167,19.15523509914923
-735,50,58059,-607,59343,59278,13.767164842022606,10.652300737772084,11.417940410171912,521,-1965,1109,16.713351068335978
1797,-1403,58634,-1660,58891,58932,11.376755752321163,15.134841149026473,10.419207509396234,708,981,1514,14.785559782295223
-620,1753,58339,-519,59279,59338,15.419609854219768,17.926658467251862,10.36762246553056,1646,-1671,-1430,16.517107233371682
-783,-810,59704,-1145,58868,59632,13.645683188354258,18.633152196965398,13.659286030290577,-1814,896,-1318,15.95194665045328
11,-1241,59829,1160,58554,58337,15.888993759462029,18.27814978662523,18.427618461521682,-1632,-1116,1510,15.930944218246562
934,1102,59186,685,58661,58665,16.344261549605214,18.94124031395038,13.374843567991924,662,1566,1767,11.849165826709719
-264,-854,58251,-631,59016,59608,19.417258218150565,10.722301517195913,19.603999291295956,-505,-841,-7,10.545158711173233
-1421,196,59134,-1575,58845,59535,13.693996755293142,15.420374438251033,16.66725703088531,-1856,975,1373,12.871772005125111
-1941,-1051,59088,-644,59736,59630,10.594389979829515,17.037955269117564,13.351778447304316,1702,320,-988,13.58801300856
629,-666,59367,269,59350,58698,12.37468722948206,16.545958707904923,17.166938111796465,-1837,-1795,1376,11.865803890352947
889,1450,58980,693,58871,58936,16.102919461215905,13.12514100382451,10.757933501470538,183,1112,1298,17.14308663051873
675,1125,58669,874,59703,59312,19.743766055856554,16.673535909331452,12.622227848924087,1337,-1291,-750,10.148586470892816
1525,493,59690,1718,58581,58443,16.049519489686343,14.784225060225758,18.23171066342568,-968,1122,1806,11.11826926904903
1038,301,59314,-1058,58334,58975,19.085810327880274,14.292906339109066,17.25382501907327,38,1175,-1671,15.863363409995276
-758,571,58981,-440,58639,58971,15.964680541788715,10.303848246091464,19.044326905859872,551,-717,225,16.91462507319434
-780,711,59640,803,59241,59327,19.034272381651157,12.639599885901003,18.142091380184127,-1895,1060,-787,12.77236825362423
-1344,1269,59086,894,58592,58384,14.405574273458742,12.998508849006718,15.8466201176382,473,1016,806,10.64982585524067
979,813,59489,1778,59245,59472,11.968893371474213,17.577223181039052,15.181837948481721,-1682,1014,-458,18.94699200813898
659,642,58445,755,59288,58651,10.83151348136037,10.34136629605776,15.542407452815262,360,545,1270,12.855320217183795
178,-1547,58902,-1262,58758,58599,17.66572602002602,11.715478742029628,13.25998474287364,-1178,1964,418,19.518133682621873
-175,-1039,58430,1603,58112,59081,16.766929302072445,11.566482174082969,16.520583479494384,1704,-451,-1805,18.529676216517466
1103,567,59980,-8,59721,59474,17.624099266951955,19.628990208149744,18.188859724252623,67,673,601,16.42010784191782
-964,1859,58983,-1989,58367,58464,12.644000577188631,19.601634598351197,14.516334679058616,-407,422,1333,17.42837869490885
-1988,-730,59758,-705,58416,58335,13.78955187843324,17.63682884006216,10.777471963383308,102,1759,1550,15.54118633897573
1928,335,59781,-893,58871,59865,17.661566828739076,17.963909610808027,15.714965900856999,-223,1227,-1338,12.234474827300705
-926,1814,58703,-510,59049,59150,16.199114276881406,15.132708123380088,12.168964494937985,-72,1546,-658,16.768094720315375
-1281,-1508,59387,-1766,59000,59479,11.447627537859091,18.53110698515409,12.4357495074931,1176,-1035,-1897,15.257765502672775
322,987,58776,-1532,58441,59615,19.449630140264787,19.33063859374851,17.60188977963625,-1438,446,1001,17.938046329701805
503,-407,59740,-825,58844,59424,11.636545153089852,11.626704753959244,13.013228996076062,711,-1905,-1368,17.3934971514728
1422,-866,59033,1855,58383,59990,14.166941868212673,19.203429372641562,10.424839638250345,487,771,-1725,11.830809470327502
-1556,457,58475,-397,59790,59604,19.29438161086281,15.384808816785107,17.507107238574505,722,-1934,-487,13.94400301150271
-1211,480,58526,531,59716,58112,11.553273846804467,10.618351014445677,11.857130152953939,1330,-1056,795,10.50256738182674
-1464,398,59940,-843,58341,59216,18.604518494702894,13.714928423837867,16.39979388459234,-780,-229,292,12.43290549674607
-446,1166,58353,1547,58606,59242,13.589186111295161,16.59853474879539,18.240731392348952,1540,-1502,-1450,19.898051852197277
723,-34,59144,-694,59822,58694,11.908883278159893,15.255266279193034,10.45605743356293,892,1181,1226,13.072328410038537
-946,-1499,59558,762,58371,59035,19.945756841487615,11.573889172616079,11.277866743718146,1296,-97,1998,11.749984898848112
955,-292,58170,-141,59950,58680,18.725337079756976,15.151513819070388,15.334109144342612,1292,-431,-896,19.68600095466267
1090,573,58038,1476,59576,59952,10.507079114022218,16.801124552824835,14.147248953537694,152,-1688,-1187,16.166028970956877
-470,-490,59462,419,59055,58319,14.437582190869232,17.583481361662503,17.79286150557563,-1413,216,549,15.637364362763325
624,-1446,58156,-1680,59378,58410,17.951091577322693,16.645211340243097,12.064971418537178,-820,66,-1845,19.965163637803194
258,-1103,59086,570,58881,59585,18.9205437428447,10.129942093178341,19.207167647945447,203,196,-1213,17.30034681619947
240,-118,58543,1534,59264,59560,14.562313114359254,12.057036066224693,19.751819438694124,-817,1082,1824,18.874316534862313
1619,641,59317,1772,59289,58099,10.19775160714904,19.22876851656392,12.536363328740858,256,1510,-116,13.868008276327938
-1067,1766,58498,1064,58483,59346,18.863257137095257,13.900666196077337,11.818625054778277,-360,-1104,-860,16.595895645528852
262,126,58323,635,59229,58912,15.54304570845332,15.23011736297052,13.724525933435281,281,-1304,68,15.926800159474476
1032,-1189,58030,-1329,58563,58672,13.293073292053442,19.167547658952014,11.428912964905289,1289,-1695,247,12.530613766505539
-1558,-1966,59803,1340,59356,59729,16.28433977083317,10.149884558662604,10.589133143491425,1089,-1205,-1998,19.526649974805956
1483,-66,58490,-38,58399,58421,16.523636546278897,15.484456547703449,19.40610243027629,600,-1912,1303,12.04153822300203
1099,-1966,59965,-1297,58241,59281,15.406925617640853,17.189946808551852,12.774118203892582,1958,-1397,-679,19.052697357416925
-1075,-367,58883,306,59737,59231,12.87891937058648,19.539346060599456,16.19472932710385,1181,-1381,-310,15.353849705584505
1585,1289,58368,-554,58200,59337,19.838652362538607,11.774050515019308,16.900294557956695,-1616,-18,-29,13.784210787365575
-363,575,59413,-1745,59236,59490,15.137307927314083,19.35739700886738,19.59732862278378,-1039,-166,401,17.52284724081988
1811,715,59271,1109,58247,59682,16.178109651873825,11.931705094422378,14.568523000527515,-6,-274,104,17.19649377733774
-1001,1151,59311,1334,59084,58634,13.303790271306418,18.046745477610006,13.000400435111217,-1283,885,1943,11.631142762888258
-747,-805,58510,-744,58566,59328,16.63013169597785,11.606393644700875,10.843178568096782,1245,914,389,17.760200658217443
524,1220,59477,-460,58128,58934,18.732500080236086,13.994567094941239,12.135717388205133,-1949,821,-1541,18.585897478837538
561,-1021,59006,-1678,58045,59664,14.1962068935721,14.9212245216034,16.00493226446676,1790,-83,316,13.521915838430516
1942,217,59142,408,59373,58982,16.772940897301897,13.893074720702803,15.381423761662887,1000,683,-546,18.134575550806794
-986,1034,59918,-223,58690,58249,15.030477793983533,19.007735452016362,17.523947376882333,1998,549,-1276,10.3758879954332
-1712,1832,59813,711,59854,59324,17.926089780715436,10.408040742897228,12.865033423265544,-1062,-892,-1335,11.982001323251245
998,1336,59265,-200,59895,59556,14.538648469971637,14.06456504931267,11.136945705466035,-29,507,-54,13.787933709280942
655,381,59691,1730,59209,58578,13.435474606229883,18.17676092967667,10.35498899272644,285,-1799,-831,14.230476409631951
-20,-578,59023,-1986,59567,59526,13.567531951534836,16.621198549040876,18.27802073152708,689,1790,88,18.85308896786501
-762,1530,58374,-205,58803,58127,12.606540207176982,12.236500895863713,11.984210692298937,888,-1689,-1700,17.848739656636987
1960,-505,58034,1763,59150,59208,19.151041534125067,15.91103110867899,19.822603997830697,-744,-199,1525,11.837492359243125
-835,1735,59552,1897,58337,59103,10.71409092798921,13.566308921473595,11.539635876727699,971,-765,-1966,13.133027682067517
1789,-568,59505,-228,59236,59756,16.955887526982792,11.627567372350075,10.859337016730748,-1411,-43,-1610,11.723807603272348
-409,-1219,59613,-1920,59620,58647,13.539828209089766,19.92512286446894,11.674497275783612,-1294,-1719,-1293,11.44771962409779
100,-7,58518,1400,58264,58365,17.652925711296014,14.65190422847498,12.957157385458135,12,-480,-845,16.694748029270357
-1454,1315,58623,227,59151,59368,15.242883648662255,15.216336925515302,18.81573830979477,-1635,-893,397,10.36786146925249
-1415,-695,59780,1661,59856,58548,18.587522205883705,18.73642074963532,12.405667891090207,-115,-1117,-887,12.346054364462574
1448,1036,58441,-659,59591,58335,11.67885019849497,11.821610217384595,12.473484111506023,74,1277,1275,13.582468569477692
-268,1001,59952,1436,59251,58119,13.824060322507744,19.3010420593738,13.004489612804651,-1414,-531,-331,18.409926411138947
-1131,-1620,58053,-415,58297,58358,19.405130116058682,11.165645219958185,13.580979559350588,-817,579,1339,17.198477064152154
-1779,-1386,59544,1218,59394,58072,19.352410616266766,10.482985394151555,14.755737484102944,1010,412,1527,14.403821315736849
-571,675,59554,9,58056,58075,19.777764987761103,13.736144435848006,11.207211911063442,-1660,-208,1450,10.268821498865655
-321,-1389,59485,403,59797,59845,17.61300334080979,10.711217611646752,19.86998622262574,1011,-1371,638,10.682483553125767
-1883,-1650,59162,1386,59637,59485,17.059726562548146,11.359139487796204,14.56281408209341,330,-831,1383,14.76903905836783
-718,1602,59487,-617,58655,59716,14.969000073795074,17.347302992147164,10.662985416246837,-328,1365,-1371,14.556786563048124
-115,-1758,58992,1286,59040,59726,14.23823769645571,17.527356537163207,14.46749157755863,1310,-567,1297,12.955911597622958
680,1393,58239,1099,58647,58410,16.28149356238024,12.389398319530674,16.612544260750127,1491,-1127,-648,14.185699787038235
318,1957,58211,-1809,59420,58827,17.448523973536304,13.088371931963081,10.449350029097367,1898,1020,1698,19.935266806135417
-1624,-331,58933,-901,59743,59895,19.716302989780445,10.155549776265232,18.702452575799185,713,658,-436,16.285360505860037
-1549,378,59555,-1612,58606,58795,19.708343590546647,11.761745101894803,16.668295001462916,-1023,-1265,-1424,17.961399927678887
-575,-1726,59078,545,59639,58185,16.685693146988307,11.680083641264382,15.330535241150923,925,1962,-943,12.023275345911141
-727,-1494,58477,952,58284,59889,13.429446964259682,19.11086922526444,10.647258036086397,-373,1023,572,18.906259771002315
1549,-542,59885,656,58246,59199,14.863196911806206,14.004066812269045,16.549270141655107,-1905,1120,1881,13.242934958607089
-351,1221,58365,1541,58421,59937,15.501928032633927,19.82851757819251,16.911751970522246,-1669,1118,-1208,15.273910312197884
428,296,59444,-297,59995,59524,16.30728796555327,17.417426843993308,16.252347514946017,774,1601,1552,11.224179565984983
-1993,1703,59920,908,59097,58810,11.191104026472475,16.789762912754732,14.043321483440565,1557,-837,551,14.969972828508464
-1267,990,59280,-1367,58985,58515,11.438971648420223,18.732415469320124,11.765686015886809,-788,-684,-1197,10.017472011047754
1367,61,59872,1033,59811,59305,18.897621968301095,15.70853059744088,17.471625406330737,-1233,958,1386,13.918831884735777
-542,-70,58861,366,59923,58890,18.91536328203316,16.807736846444385,15.380236230227801,-807,331,-1694,14.530392000965048
-1126,1259,58607,-1457,58060,58131,14.467434886852168,10.34981444339937,16.908202302549835,1527,1871,1778,14.68434319302741
441,780,58169,569,58556,59799,13.356645664471287,10.997257614252382,11.27523511264761,-819,530,68,10.722480884482815
-599,-1761,58425,-908,59881,59130,13.460334617999344,15.360973974812929,11.2226162551328,1839,1975,-1460,11.091590822929323
-1109,-883,59324,696,58415,59031,12.269426429509828,14.220757081923537,17.25111409119272,-1361,573,1753,11.977166452619459
535,1152,59268,-321,58828,59166,15.53907945717815,10.474759402760421,14.041195130353127,1806,-1283,-1696,11.58557470809069
1393,-1679,59276,851,59030,58104,18.29742308208791,14.037954172276585,16.132831864245905,-689,-811,-26,16.178686150156334
-655,1537,58643,1289,58675,58357,19.994609595944155,11.740857992985788,14.051700772524706,-1729,-185,543,18.707866174723208
-1575,1209,58136,967,58900,58077,16.742886808486688,12.978783556441442,15.45634964373703,-145,488,-62,10.467056793539705
551,-1943,59405,397,59161,59611,15.091570167744923,16.743118737291937,10.027124421358804,367,1465,-693,16.90063663224794
1420,-1210,58795,-1957,58070,58875,12.12262431951812,12.413482721539213,17.327960690962712,-648,-1031,-166,16.671310150528765
-460,-841,59959,-14,58266,59790,10.442296204380293,18.54457827471228,17.492118361963016,-654,1628,-910,11.188709772453988
-462,-651,58079,-1620,58246,59841,12.740269349780455,13.345283684629333,17.333252769494454,-564,-1241,-1599,13.12832626815209
-205,-507,58963,-1089,58514,59258,15.45387513091093,13.298881101808501,15.321291278686642,355,938,-1455,18.42662701066626
-243,-913,58299,1410,58263,59509,19.4644353849892,14.583468911350792,17.602192065550494,1245,153,1657,15.259493801429624
1842,774,58681,-1806,58901,59721,11.099293738518769,18.330841021315752,14.558806961673891,-1235,-262,1823,17.094949044939973
147,-1355,59332,-646,58889,58026,19.88456051724025,11.370605211240537,19.02210344740091,-569,1280,449,19.484452569075067
-50,-1852,58820,895,58616,59419,15.165149987075054,13.090960050927027,10.20387785757202,-1291,1724,1511,11.84707125531072
1276,-931,58139,-901,59837,59877,14.971139207122256,10.113417665565708,12.011656464152896,-755,1424,-747,10.892455015904355
-1811,-1193,58063,-1800,58594,59424,12.990399086120188,17.334284379691876,17.112097595118183,619,389,-1560,11.788234931501677
388,324,59158,1124,58421,59420,15.195828524207233,17.52223779156007,12.811494907614481,970,-1666,43,15.756752903358262
-58,1396,59885,1359,59911,59030,12.067554327955428,12.111307897601389,16.431768443035,666,-1884,588,19.958671081023873
-1503,-1797,59324,1304,58304,58818,13.151943243726217,19.700807126549588,11.158980357992212,564,-59,1537,13.303394470309708
-841,1097,59512,1172,58553,58833,11.960816788145456,10.399990462585295,18.279099328489597,-1167,1797,-818,13.763271686659726
62,1889,59792,-1376,59726,59438,14.73861136503082,16.077811665499166,19.35293792719296,-353,-6,-526,15.383848841399761
926,1692,58181,-887,59350,58295,17.627530354049448,10.530249364614756,14.691017947726541,-204,85,1070,19.46428987328957
-984,564,59367,584,59127,58827,15.49025120398073,18.026310850622068,10.960905613183987,-250,22,-592,12.248766212754541
1231,-1735,59679,1066,58229,58786,11.446653435122803,18.869509051778383,17.32219217657405,1452,1673,1053,18.692651078661562
-915,1072,58676,1064,59303,58379,19.49523429530604,16.638986163236222,19.054201751243284,1988,-1733,547,13.870681411519975
647,624,59277,-552,58752,58104,18.174948257813693,17.745020178563855,12.91657724004055,-888,-346,-449,11.410329131942078
-702,1402,58582,-575,59543,59225,10.102359685051578,18.775520410637853,19.619795310687834,-1590,-643,-836,11.020135646083736
-922,676,59569,-1471,59099,59129,18.08745995676569,16.75928460345132,18.415591357472888,80,1401,-445,13.171222020177156
337,-1650,59766,302,59414,59015,18.36752788500666,10.839478779222581,10.68634023257984,149,-1704,1073,15.601746561966486
-1180,1967,58143,-1481,59989,58754,11.334348407569127,19.132779961283084,17.65742062557913,-1626,997,-1896,12.91466365379085
198,629,58306,951,58584,58240,12.161475500978817,12.134883533274309,15.403987716957124,640,-1642,860,18.592676794253528
-1406,-605,59507,1998,59042,58608,11.48484991583208,10.91330903975649,15.42821214953073,14,1927,-1176,12.765814656194824
1353,-604,59444,1016,58133,59190,13.799318200305793,14.956693970792351,12.49002496564557,-341,-1422,-285,10.98844580731515
1661,1523,59862,1702,59607,59580,16.016726868592986,19.206532142100627,13.205001722379892,1339,1470,639,10.520795606069354
-1110,-150,59165,-1041,59644,59971,10.470788746910632,16.79357957763274,17.097105680948204,1697,1803,457,19.481335921837186
-1566,1060,59572,-1354,59621,59745,17.64714978952247,15.866207567059895,10.173851597769923,1965,1403,1164,12.769935303199025
-403,-53,59010,-1174,58508,59102,16.86224724087954,15.16568863192741,15.784075480432454,342,229,1057,17.005710798950613
-1166,1059,59321,-1926,58232,58938,15.57073078581795,17.363828372849245,13.378685127095503,-1736,-1584,-653,15.777161343925158
603,-1954,59641,412,59642,59287,19.556514449665986,11.62833639199145,10.470452542400922,1199,-1088,374,18.28807521072015
1041,-1205,59938,450,58526,59796,11.852862194850179,10.816602871183235,16.6724497027859,-1384,187,-1631,16.101252852729623
699,-1624,58314,-266,58523,58082,10.76225853990335,13.72742811333514,15.831831653290143,1136,25,199,16.650777586776293
824,1741,58456,-1228,59867,58065,10.289830915142725,16.946500333790496,12.437551569857373,1167,619,-282,19.681729009909056
1214,-870,58987,-576,59400,58026,13.5117875820904,18.23707706417983,19.18366805101693,1925,-1757,1956,15.844998366920708
366,840,58444,-1716,58707,59094,14.065483117671949,17.42666799932225,19.042034801474625,410,71,-1098,13.159803537833884
-859,1486,58257,899,58587,58240,14.669483710479765,19.485145878517176,11.762423168345087,-1718,64,-642,13.9975625754479
-443,-1408,58089,-1271,59638,58009,13.05803133339509,13.342405243270287,12.04684246082535,-1712,-1144,-626,10.717869617932633
-1640,955,59386,846,59733,59486,18.159051624736943,11.240638312114678,19.501269753921683,-1089,-475,-1031,17.69337633612028
1451,-638,59832,1692,58241,58880,18.31793871666292,14.167751634204947,10.39852435365787,-293,-1848,-1486,18.221090440142532
-378,-991,59843,318,58972,59652,15.334931874109333,19.101669550206267,19.99454023514378,-65,-68,-410,14.305867138453637
737,-1569,59451,1875,58773,59806,15.945784369359071,17.15478366754475,16.042709911582175,-1642,-751,1592,12.253541771279151
1010,-983,58622,-1104,58212,58581,16.158004222307234,16.563747586100135,19.65113641775582,-379,1086,-869,16.640561960220793
1643,-732,58643,-788,59639,58577,15.452440175243277,10.218646385928006,19.006852164299993,738,-1316,-340,15.488870231406263
-1279,333,58636,-1133,59277,59032,17.675391172405526,17.375608334617024,10.70360613330115,306,1401,-1334,12.263127629739467
-1474,-241,59688,1709,59387,58597,12.5100011851954,10.513847037037676,14.934187741198688,951,-1668,-948,17.297112209769054
-176,672,58211,1797,58326,59862,13.314866892639225,10.539654032736195,17.620735845599732,-631,-1085,-1201,16.75415420797707
1283,-1548,59494,1075,58257,58189,18.28404670295309,19.03360619562752,11.071616584600667,-191,-891,1472,17.75159426636825
-177,1476,59157,-418,58516,59633,14.585438911715485,16.810478959433077,10.007321800377689,-1430,-1484,-672,12.811330748506649
1563,-199,58675,-1626,59792,58851,11.983650973118088,14.580755527367373,17.399949547730884,-841,-870,849,13.183860213161799
-684,-384,59603,-660,59741,59916,18.497523509744326,10.657711680559853,10.755383497751549,-1149,-950,688,16.374502564672362
1459,-376,58862,1842,58628,58117,12.17405048504428,11.738625214849579,14.266948591650804,1205,1148,1974,18.801165033315904
793,1438,58599,-718,58464,59154,19.942114584391472,16.434962892925018,11.442461894944163,1569,1289,351,16.314405091809547
-642,542,59064,681,58428,58511,19.918034034724386,19.20634160597853,12.69375863963173,1170,-684,885,19.35199168030919
1306,-930,59050,-1706,58241,58630,19.711723506293655,13.435141865622079,16.66836520862327,632,-60,-705,18.75632537715282
261,1513,58914,251,58847,58913,18.94448991806817,17.787680589012798,19.477667568571214,745,1398,-1629,17.322474644480657
975,-1960,58874,-510,58738,58172,19.764368030944627,19.482022476339967,12.370798590393285,20,-1062,1823,10.129530285491251
1856,-210,59491,-1777,58179,58495,17.82578117143236,12.036568748608788,10.24148526069842,1525,-1567,1248,18.245252413225533
-1338,277,58715,-185,59995,58928,14.388008180940542,14.02330527265839,18.412280255524244,-1663,-247,-260,17.74031633922845
-1728,115,58297,-1811,58999,59375,10.202942208099342,13.266703902235745,11.54854919385562,1802,1479,1458,11.59454183098089
-1999,308,58614,1479,58544,59731,12.780197726290165,15.94343190529015,11.05954143532626,570,-695,-531,19.08902742825568
-446,1921,59072,676,58662,59348,17.864265664142877,12.760944545969,16.93820371372746,372,1996,-1137,11.344598402113562
-999,1767,58446,628,59376,58881,16.764777977698408,12.656388694166978,10.535079282495431,-1751,1529,-176,13.891030320630282
1060,631,58680,-239,59783,59173,15.548788854027192,13.631261222154262,15.122666658611891,1185,1416,-361,15.416329825844993
-99,-1301,58229,-619,58206,59109,17.632067881111197,13.24153425488773,10.045528107983928,-461,-1371,15,16.725124333648683
217,-1483,58154,-796,59801,58933,19.508168741060544,16.973827039896392,15.342947158322158,-1240,464,1330,16.538691859079403
-457,469,58308,402,58864,58973,17.455562435167,18.81467374991611,16.82875822292393,504,423,-1781,19.436493531262464
1762,-1706,58165,-610,59464,58913,10.613557993781184,13.464575602423277,18.097224466236515,1530,144,-1213,19.96130287481548
-169,1333,58840,979,58779,59916,17.92774421747161,16.39673261268399,13.873713088977585,-520,957,924,19.336291349795754
1075,661,59538,1573,58879,58823,18.01173595560235,18.295819858127977,17.094699155890577,97,622,1792,19.769768276962807
-1754,-1828,58823,802,58100,58509,10.63574332920258,19.04000555096414,11.730343672234719,-1479,174,-1782,12.683889197863547
1310,481,58850,-1362,59085,58434,12.120220928110381,18.724278236651266,12.106418954201182,-1342,1275,-14,11.56932694150689
442,261,58787,1028,59343,59976,19.170783576494706,13.31634377585221,11.115807358459337,1232,1988,1384,16.175142266016163
-898,-186,59013,855,58389,58819,16.6277762778629,13.231547829484217,11.372916402827274,-1704,-913,1276,13.655767297314586
34,1354,59952,-1430,59967,59461,16.659054359941106,19.854238567614654,16.64800763170815,1651,-183,-1159,14.951336626164109
1178,-1591,59819,1890,58493,58264,13.073416563011145,16.0967733716773,16.85950254361368,-1337,1787,-460,10.846748363097404
470,-794,58729,-1427,58338,59212,15.849626226623709,13.97793405877982,16.357865457623774,-1393,-21,-1129,13.125405224720836
1315,102,58392,1616,59046,58564,14.844241069677766,16.28786040728859,18.555588600165834,1421,-1858,1154,12.010525493136342
1,623,58682,-558,58645,59709,13.38556375318276,14.240913832882221,19.89614608462184,-1268,-1331,1535,12.821315743856399
-1016,1934,59825,-921,58591,59677,19.463065506362383,16.13083468022348,12.16898689644708,584,93,318,19.760944933426213
-1934,-535,58707,1281,59925,58326,13.837437236039221,15.18859308169451,16.909611045958034,822,647,1952,16.187010432122708
-1303,-184,58082,-712,58590,59167,18.120802073769596,16.42107342845656,16.300160715500454,-1585,1798,6,11.333543053419044
705,-1419,58309,1816,58593,58838,11.45866812915669,10.383080370824784,12.744929978814172,-1024,-1463,-919,16.070841760132275
-1828,1861,58290,1697,59225,58867,15.739007352631353,13.651750027841267,18.630938431070863,-931,1180,1160,19.92274191367696
1115,-509,59361,364,59560,59669,15.758700764031467,19.173506877234693,18.813026181820973,1105,-1796,1691,16.998117038092346
-1216,-683,59876,-1030,59553,59535,17.774001442433757,16.608680360201618,12.575191557498083,-1839,83,49,12.27877911112322
1436,1875,58140,743,58645,59318,15.928483214451198,14.010402085666747,18.017913315612525,-1028,1062,-723,17.826790967726403
-470,1935,58792,-1317,59191,58309,13.69374776471701,19.429079605952225,15.175333318430305,-1149,1710,1980,17.252388887272204
-120,-1121,58164,-308,59338,58522,14.48153649955261,11.29302458009137,18.227973151361056,283,110,-256,12.44943414180873
299,742,59617,1873,59058,58656,14.106739339719823,15.489502786850299,12.822025125332031,1266,-1960,-96,10.164368321671999
-1937,-1125,59671,1490,59512,59933,14.29774526076735,17.773491965783663,18.813752886190038,-690,317,-258,10.08610631828201
971,-678,58732,1319,58333,59378,13.486773735660993,18.145201863939835,17.233281958381795,580,-1854,-1706,17.784195242793878
-319,1678,58776,892,58011,58103,13.437651417087153,12.828572728429432,15.388656570804475,1029,1816,11,18.89337286193932
-1967,-1779,59917,-1805,59478,58783,15.761738380797235,11.61105694935386,17.225496901728874,-957,864,-1783,12.769691868556892
1938,-1074,58340,225,59395,58132,19.40044108628449,18.201199054804704,16.6428700994516,-1731,-1443,1344,14.828539852337535
-1715,-1983,58316,-447,59526,59677,12.086205665119293,11.105366157076165,12.211030826001702,-1462,279,615,15.58261161365524
1664,-852,59144,950,58188,59012,10.070735912291074,18.001767637727053,13.500166639978742,490,1822,72,17.748540926872572
-1789,204,58101,-1228,58834,58727,17.74725935258291,16.310429430177344,17.726963773196406,-1356,735,-36,18.845835236487993
1416,-411,59995,-629,59031,58465,16.39930015761486,11.689466052440782,18.64045377664626,64,-643,-1144,17.435819336330958
-1121,-1452,58995,667,59912,59711,12.419805070083543,10.661670727496329,17.55440304340259,1332,1653,1977,12.333389429542093
-843,597,58327,-518,58029,59450,13.087046104343028,10.162138223706213,13.57202591339085,-21,-1002,-730,10.189907397525083
688,85,58432,-1349,58796,59889,10.321582775715838,13.839315814103323,15.981799923163464,-359,1627,-1407,11.53481592252219
-113,175,58069,-401,59681,58390,14.174388054521152,15.198075119733826,15.290630247903817,-953,549,-692,13.194837253711967
74,-1704,58087,-1615,59271,59325,13.212495611052137,19.97373721347072,18.432152537402462,568,-325,-1997,17.88523707176121
218,-298,59008,1408,59742,59794,14.828601472645065,10.673640035401016,18.423185971906754,-1326,-29,-138,19.006204343838476
24,1564,59046,-1145,58563,58255,19.458062772478055,15.192732035691845,11.177067793335109,617,483,435,10.387523001930312
-1389,-47,59108,1405,59392,59949,12.337283096281794,19.78729449861779,18.63878404906776,-30,1221,-977,10.216120296925073
861,-1737,59220,-1019,59654,58342,10.812318505661224,18.234287907449207,18.220718530818722,1432,-1404,196,11.115464388042058
1112,-1805,59375,-1451,58244,58056,17.62858525370582,19.27117188435095,12.394623214608565,-191,1210,-887,14.749554095743346
-1672,-1270,58120,-1407,58717,58714,17.144506765568078,12.817721325251624,10.47557570560829,-1155,648,-606,17.068366377887916
-942,303,59581,-477,58748,58649,14.250161738606796,12.558675214782753,11.166820894785968,-211,1481,-522,18.416413215807104
317,795,59250,-1384,59065,59544,11.843987115246435,12.348392340558966,19.607510810098887,-597,-798,-45,11.723635720041075
1909,-140,58005,200,59592,59923,18.371082933654677,18.026459496806766,18.48038671553445,474,1220,-1754,17.819280446081002
-1893,-1790,58388,-1044,59435,58915,15.456307438700948,11.08706859977901,19.86529733223995,1462,1948,-91,15.93221062250173
1781,-140,58006,1727,59172,58640,12.61600581491253,18.665173267667008,10.65809356775485,1684,-1381,1100,12.82059543508907
-186,1533,59388,132,58207,59634,15.756736450060501,13.673513487812881,19.17694918571503,-772,-1661,365,12.126034485573175
116,-25,59490,-1093,58688,58588,11.97772972883423,14.802762132578579,19.13972104658231,-748,-1369,125,19.33114679768373
501,-1382,58111,-290,58604,59430,16.24156601612011,14.876828168071997,13.886533093182539,329,1746,-1285,17.762642220974037
-739,1066,59607,-1576,59910,58014,17.897711089342046,18.081593066784926,14.67560791221807,-920,-638,-1765,16.115196564009683
-585,1885,59725,435,59995,58839,15.492710423097249,18.860170677953143,10.31623525224741,1346,1847,-1894,13.292609186601105
-1249,-277,59452,-876,58390,59193,16.80976472034903,12.98454854737667,14.317229892852957,374,-503,601,19.159642148071743
536,522,58067,1935,58886,58155,18.84485803708465,13.086595081131112,14.553381460323308,-1713,45,-1492,16.401407854219052
-1747,-380,59268,411,59010,59252,15.080024147840764,17.201658274572566,11.783163244758052,-612,-1160,-541,15.914499806377789
-1849,-1265,58401,-199,58162,59627,11.618772290615365,18.15342312828944,11.115822860690574,-855,1038,244,12.695480197965628
-517,1900,59294,-999,58075,59440,16.068275257424574,15.726309256718245,19.07510668198326,-1364,1289,-1921,16.36027778246913
90,204,59745,-1711,59700,58397,13.818131704686209,16.363336538736412,12.510839729395627,1560,881,545,15.04602898493639
1783,-608,58381,-1528,59986,58742,11.143106338397356,10.049242489928936,11.125525996135922,-1781,-930,1828,10.086171203250919
-1893,-528,59444,1082,58213,59960,11.015841282604498,16.276710791952855,16.944890460984553,-1648,136,1189,14.736575831528498
1757,-979,59062,-1547,58830,59552,14.341489071030532,15.505981587117208,11.743789725957683,-46,1571,1032,13.4303898649621
-1423,-1543,59514,1058,58433,59850,12.664387408691983,12.95001612167879,15.315023445374674,1498,-1261,-1840,15.654699452706774
-1545,1350,59246,-715,58065,58629,14.345673016597162,16.090429387995563,10.424232267161477,442,-678,-386,19.565944632825456
1714,558,59509,1015,58910,58734,19.50029832968751,15.120413102086093,11.60005433994072,1356,1014,-1718,11.689007351399294
172,1601,58961,-37,58256,58820,12.750153484473515,14.846646772771471,18.932316985237186,-474,-1710,544,10.498034606339017
-828,1848,58055,-541,59837,59357,10.046939106904503,17.44789041073887,17.98765396915904,-1627,453,30,16.074450788952863
-706,-1913,58654,437,58339,59383,15.708049991020516,16.711856199787736,13.124538279581127,1108,1488,1516,19.42386276710964
1160,-1766,59478,1154,58843,58237,10.198237934596055,16.925062027128128,11.523051128926356,-1331,1173,-866,10.095933517179294
921,906,58376,-1205,58571,58336,13.967340566189044,18.52457909733751,17.270731635364044,-1837,-809,-1833,10.41591881700238
490,-1468,59534,-1768,59014,59471,18.25909669285474,16.582624995552372,10.68898903803033,-354,660,1377,13.001154048645187
-1922,1599,59568,716,59420,59883,16.0695067749594,16.07252018903136,15.194508416331557,1533,-1778,1546,16.2634892224578
141,-517,59520,-1049,59644,58563,15.56157501540855,13.92733925661953,16.79394508433868,-217,634,-1508,17.11583888911573
-1321,-513,59426,-1608,58329,58783,11.805918186910816,12.154696873630222,15.62965415495684,937,1041,-1097,11.851801246843564
757,401,59773,-1619,58504,58330,17.621979639833306,18.627402016623137,18.328221346094942,-1576,325,340,13.836222888915046
1981,968,58909,-1137,58562,59375,19.24494939176089,18.253533083658105,10.56502342211327,1824,1017,-1955,16.84768051407643
-1082,-1547,58380,202,59825,59684,14.158064592169225,17.649712354964855,12.602054863735065,-709,824,400,15.942927139805505
399,1394,59484,-1402,59014,58159,18.423319019781466,19.78723226363654,17.95172681036744,-624,-1337,-1933,15.048896718556296
791,1640,59413,286,58410,58653,16.40073186293698,17.2149896078707,13.685248300319579,399,1001,1752,19.643223670934045
491,-1939,58437,-991,58543,58644,15.086758241367694,19.799864941058317,15.810558922859,98,-54,1484,16.38275153977499
-765,-1336,58051,925,58797,59931,16.59706267789878,10.904417043511739,14.470910320349256,-922,-1673,-1170,18.550862422583606
351,-125,59174,-55,58148,59060,18.479319532386413,18.512508793610213,17.872358181288675,-513,1563,-10,12.452245542145521
-1690,716,59938,752,58996,59859,17.86401795919067,16.45072482741307,18.201206663654368,-245,791,-1096,11.905615448515114
-1398,-755,59535,-145,58234,59925,17.891429828947295,13.343600281592316,13.734691885544464,-1992,470,1239,19.624480925514423
971,-1585,58313,1522,59108,59667,14.73908964617261,14.470763725573928,13.868609005444622,1376,1650,-1809,16.44930277108743
-1110,-661,59126,-972,59267,58436,11.059108333444659,12.255959207747381,18.112700643423665,-285,294,306,11.638263975930734
811,-142,58309,1147,58062,59039,12.832863757319753,13.822122913694418,14.244485076371895,1041,-429,417,13.603131355407829
691,485,59406,-578,58850,59513,19.71937185588594,18.096157550738162,13.255407144081763,-117,249,743,16.418464521360267
1724,-1471,59198,987,59111,58504,16.80922060773753,12.947399626946849,18.701570260619512,-122,520,-1820,10.058070868344709
528,1632,58197,-642,58590,58666,18.148049501861774,17.83344691171213,17.427948228134078,-77,1475,-1386,13.68435581669787
1366,-873,59836,999,58325,58610,13.830080903444344,14.252566546761376,19.61848441924682,-1728,-1195,1949,15.687478520393913
-878,1364,59017,1154,58733,58821,12.780065492785665,17.719883606384037,10.448901757249107,-1447,-987,516,16.854984392402756
1803,-402,59912,1845,58526,59052,16.565278995217238,16.807874680302334,14.444150394340035,-425,-885,-1847,15.834004515018345
-17,581,59984,1027,58643,59433,12.68720087583043,18.967076774159434,12.110344963135764,-261,1651,814,18.564934309521593
-89,103,59670,-1215,58186,59870,11.606661023531597,10.315990605136061,14.27218626192202,999,-985,-140,12.336774882652941
-1692,383,59491,503,58074,58871,15.221080133110643,11.478972724030017,12.882649966871849,76,1008,75,11.317058195157676
1267,-1988,58154,1672,59102,58045,13.266088531357338,17.330757101839644,12.787011883753681,1744,-1920,-742,14.969940144934771
1257,1830,58427,-1199,58018,58735,14.136120369811348,13.898537484730463,14.616961344865256,-1528,-442,-858,13.287313793200575
1232,1817,58200,1418,59654,58908,14.46133194723809,13.040869144967933,19.41732705935769,-829,-1543,-436,14.970624036731621
-1586,-1014,59902,258,59785,59130,14.712717065886206,18.94750335725331,15.119613614490373,-772,732,-1487,17.596589690350708
1499,-1120,59347,872,59532,59397,17.952084563535518,14.655497738247957,12.96763508818268,-572,-350,895,13.80811995882589
-733,1586,58988,-880,58674,58545,16.97837090554596,19.490935788456753,10.104699527631176,1588,538,-179,17.637877141195837
1661,-884,58299,915,58423,58491,18.978847173052998,12.018816071513484,19.909568913745424,1907,-929,-1859,18.650404864832375
-315,-1329,59862,-1781,58572,59322,18.360862350354132,17.8718133501837,18.01622104953197,-1042,-1313,143,17.216694259580855
-926,710,58114,1878,59333,59188,13.441983316019563,10.611652228376151,13.290714804038064,485,-252,533,18.984479071740825
1285,-23,58054,-534,59251,58590,18.444011901741963,17.73247924202069,18.745253934860692,-1688,-1935,108,17.017241151807735
-1569,1141,58371,697,59497,59152,13.40031777859609,16.342255662016417,13.033077438705124,1892,-817,309,11.15379244276847
-646,-1748,59965,-1809,58917,59709,19.59999059339024,18.457547069918817,15.41656798217712,-211,-206,185,13.80253129384341
1714,-461,58456,-742,59246,59089,13.233592686346066,10.160857947615604,19.975476687787427,8,1106,1659,19.46678499079799
58,-1911,59728,151,58700,58245,14.22297333404294,11.689969353761974,16.944441821918694,1191,433,-1805,14.135939383501345
901,1599,59531,91,58959,58008,19.342481416495936,14.04735710513108,13.792803549663946,1269,264,1543,12.035005499330918
505,1577,58997,1865,58513,58067,12.252509454359974,15.96369083312571,17.052561993784398,-1587,33,12,19.25966369325997
-632,1333,58745,326,58558,58917,17.304311052372707,16.895059319658635,17.77185212566259,-683,465,-1509,14.419591270043332
1927,539,59320,127,59747,58582,12.71492578630589,10.858317339879608,12.616288991436084,-1791,1337,-415,16.810443051827548
-1909,1276,58774,1393,58368,58992,18.5302650570621,15.79072272885132,19.363600003229372,1435,1875,-84,13.82347076244898
-1662,1317,58129,-1846,59899,59801,14.474999132828426,18.163611710154697,12.882617840586752,-1773,1194,-1645,17.139641533843623
1952,-1964,59638,-1285,59416,58523,17.944013661659348,19.305949670491515,10.534574018479972,-334,359,302,13.157528026314132
452,853,59631,1944,59269,59690,15.107162500906885,14.246439540503484,12.591835478991051,-1464,1213,-1703,18.89889687266517
1858,-1288,58444,-848,58751,58886,17.108055191504402,13.097655381595354,10.5852590697644,907,1281,211,16.987040841663827
1017,1378,59366,-1922,59898,59231,11.60573469476965,12.811744292272557,13.184127830564652,-158,390,221,19.023753994513378
509,1979,59951,1792,59205,59662,11.392135521420748,10.395793231014624,11.745532818576098,-147,1984,-593,18.773050993136938
-195,1143,59858,842,58631,58134,11.444944669833546,15.995149094338426,14.4319954661851,-1601,-291,1167,13.298456792951777
588,301,59978,1423,58176,59441,13.804087188465886,10.07760231744126,11.619567801859946,390,-1594,-898,11.501995607926753
530,108,58292,1726,58245,59283,14.483482595573573,16.99747842707081,16.97496462562954,1451,1484,461,10.94787371291962
-1398,-1302,59725,-490,59107,59500,18.66117296512069,18.108075009359098,10.328706733604852,1804,1491,-497,11.264862912688931
-1119,-1221,59645,-1756,59233,58843,16.510846270270473,10.465134261490077,11.064040751810593,-106,1418,-1553,14.46411657561196
-848,-182,59957,1228,59321,59913,17.951865470349816,17.44766898235424,12.354490021001304,325,878,1808,11.297901314703436
-1250,-1709,58400,-1197,58231,58017,10.060471668248335,18.376619318779106,10.945075987715397,-425,91,1825,16.645697861973893
-74,-1723,59817,952,59009,58766,13.130159889292292,13.614532315430033,11.15338596441837,1049,-1303,1962,13.206282984542746
63,855,58196,1277,59363,59766,17.527713688134362,18.730347442603218,12.746429976177033,1579,1417,1215,10.900642676870469
1013,-159,59798,-1833,58180,58434,14.794280957991843,12.763083736394801,13.809692939883979,1073,-1844,-1800,10.126919202594674
235,800,58617,28,59898,59296,16.95977739877853,13.097493500839136,14.702592262455745,1287,1013,-524,11.489351484739549
-226,-1140,58061,784,58096,59391,18.072166829865942,12.420383153917157,11.837286965894146,1639,-1393,1984,10.080189702028866
544,-479,58723,-1550,59596,58513,13.17903279676731,13.09387480498765,16.630518132875117,881,1977,-1678,11.576751736159707
-1882,-1764,58894,1391,59154,59588,19.263899536190962,16.693698242753484,16.03551780000073,-82,20,-1821,19.68805711100859
-1399,-744,58663,-957,58194,59605,18.73388823994589,12.58612127469065,19.005536918131405,-1596,-1302,-1659,14.876774242558247
38,1581,59360,-1085,58610,59466,13.802837161284236,11.091258336253166,14.024145386802289,-1749,-1365,1158,16.774607760316595
872,516,58563,359,59815,58822,11.13028700095353,12.213630040540153,10.810043939082284,742,-1244,420,16.928020722980385
281,1037,58667,-621,59341,59500,16.05963559272326,17.247210298178608,11.840037588183556,-840,-1604,-1335,17.989117081694076
1522,820,59886,-247,59195,59352,18.671725326808946,14.110815877266436,13.303964714016303,1834,534,1455,10.44397323767649
723,1913,59098,-1823,59393,58484,10.520715492793123,19.362889145557844,15.404928844563504,-1239,194,880,14.240208816278546
1618,683,59630,821,59114,58010,11.59500899077794,17.60747953413134,17.72123671784483,1557,-589,1797,10.87416778443109
-1051,-1382,58608,-1985,59935,58337,13.451790864173255,12.624290193898005,16.058585229960148,1051,651,-521,11.76141561018491
324,144,59615,614,59384,59830,15.405557159453952,19.783619631502134,17.76710858657797,-1593,50,-1009,12.237211714569082
-600,1464,59125,1892,59548,59036,19.969717164622047,17.498132048952534,16.942126697442813,-272,1192,1728,10.574341566847322
1536,1154,59374,1891,58088,58394,15.27165544828808,19.9905141243343,13.208773577908076,-1581,482,992,10.711682317892462
-1897,1895,58567,85,59077,59674,19.830859523685998,14.364878373875353,14.855265790861502,-809,-608,-829,19.046804493123553
637,-1138,59776,-1606,59984,59008,10.229151479368895,14.018155961336163,14.296953463858944,-716,291,-1256,16.130755937143118
-1969,1777,59050,-1290,59551,59132,13.01840477077797,11.486227190255589,14.220722644503805,-1115,1154,-1235,14.214431697339874
-1414,1127,59091,1135,59745,58801,17.25366291047554,12.943379131228827,10.091104442078363,-567,1588,-1869,19.780108198705836
-1070,1066,58326,-228,58910,58567,15.038612452551279,17.41093780901903,13.197836249266896,-665,45,1665,15.41008522517214
-741,1670,59844,92,58777,59301,14.832915205868941,16.22883471603087,15.379244296032866,432,-27,-130,15.878439070401924
-958,-489,58968,1388,58095,59780,14.171375975990301,16.81970566367711,11.417159758915927,1817,1178,1233,19.52439329598107
633,-684,59727,-333,59818,58407,19.021610007156475,10.758129743563353,14.79209843049528,-102,-361,1455,13.12308179581386
1562,394,58148,-1723,58901,59098,10.349249946485296,16.063962434795524,13.536143092823,579,-989,775,12.759205637794954
1626,1405,59655,-1817,58539,59697,12.778616132382393,12.973773116468326,11.841614435843725,-918,-1877,1344,19.729308555878916
-78,-1164,59409,-1535,58916,59922,12.668022640803017,11.68038392200707,10.575438288219303,-1354,1570,-523,19.522621365886902
-474,29,58536,1956,58813,59872,16.221217808672456,10.383489697041256,18.889511819366554,1056,-1322,1858,10.466880083432901
1591,1503,58695,-1121,58427,59727,15.66483363370858,12.591206337984481,10.543784344717755,1475,714,-1699,16.936538732459105
-548,-1393,59760,-270,58056,58727,19.2349415798353,15.20569631477137,13.616551814092288,993,-1982,1613,14.193960167854199
-41,-273,58678,1500,58302,59594,14.432467241337923,16.958914941145146,16.635576884879185,1386,1832,1851,12.438605237183774
112,-1265,59502,-1445,59586,58300,16.141492721565534,11.85527234763724,13.700566275115692,711,1922,1286,14.604937197226356
-31,-933,59922,57,59351,58664,16.072007263359325,16.205350499590093,17.60972968075887,-484,1269,109,17.8307162162074
-1668,-1881,58816,371,58617,59558,15.614411776276853,14.980623889990747,16.691925516891324,1903,1611,649,11.41130218046914
1294,546,59163,-527,58009,58965,14.599125672449597,11.546980460921757,14.934238473314599,1117,1006,-1958,13.718464201121085
518,-891,59880,-1,59634,59603,13.409016676604377,10.051857189850725,12.127536309185473,-807,722,1824,14.436361854822646
279,491,58549,458,59998,59045,12.910665988043402,12.169923571209122,11.281709483189102,-1521,1858,1769,19.094912381642082
-1362,1913,58242,1599,58827,58306,19.66289151087816,14.144355445395622,14.250332174269086,-1489,742,-1053,15.98765949727207
-682,-603,58536,77,58915,59805,13.837589956224503,16.731920104299025,14.851515908176008,-859,1719,-1125,15.484377664834987
777,391,58654,184,59323,59223,18.151303649960504,15.467753983632097,13.257341803129151,1848,-564,-559,13.146125323341858
590,-1377,59652,680,58462,59259,16.82891091246857,19.345938668180526,16.310289766207624,-1825,-1025,-407,14.913041003178835
986,-1541,59460,1478,59268,58612,11.045383101403823,19.4997687798938,18.552831177568716,95,-1591,-972,15.221808768832862
-229,624,59516,-1372,58551,58989,12.839235300597291,15.990880741024078,15.571938614163184,-89,-1545,-1204,19.05412798711421
-1544,106,59072,-1019,59084,59170,15.433894226882854,12.661865628845748,16.047090395946405,-869,39,788,17.382858331131875
215,-1807,59725,1697,58359,58447,10.74773824133269,11.902095258985323,17.44340024953837,-1509,231,-70,10.747811699324057
1589,584,59834,-140,58838,59548,13.944811253916658,15.06118752434044,17.306195124307234,1549,-1622,-1509,15.902252443564475
-1954,1126,59909,-170,59628,58470,12.77633183305516,16.271003696965813,11.751017963636663,-1473,259,587,15.008600842197858
1783,-1537,58290,263,59125,59362,18.51576464083074,17.38872021918828,18.97563081607877,-816,489,-1668,12.039087843568062
-45,-496,58211,479,59704,58559,14.46621608128753,16.012297821295082,10.124598091978523,145,-1863,-202,15.692017798393218
1815,754,59300,-1148,59042,58784,14.02372710262835,13.40849631629585,16.826124703806034,-721,-1340,-1779,15.45614616620572
-696,1577,58522,1155,58184,58167,18.42828453601967,17.495849203859322,13.624184717264363,-1093,-1482,-1254,12.254710644311086
1827,1270,59320,-853,59739,58695,18.671359417250752,13.810599221650984,10.608393831009774,-1028,-17,-213,12.01703978027341
-475,-1072,59779,1874,59230,58096,16.415079388611478,15.346693174401036,13.203073866062017,-1714,-420,806,10.702157323243238
710,1792,59315,-1196,58695,58637,10.084921814590531,16.605250147208842,17.798498601827912,-948,-908,-319,15.517006125785079
285,227,59608,606,58087,59099,13.412321501107531,17.838583402306185,17.1322786218671,682,-890,-1278,19.57134961441377
1599,387,59817,746,58049,59972,17.2832526207209,18.066376372232767,14.174672884179031,192,-1359,-632,14.236200784260673
1124,1332,59210,392,58627,59613,13.382933193350524,10.902066508634288,18.713577924544197,-1176,-480,140,10.821987186677822
1017,1704,58220,-927,58224,58610,14.90361468773451,11.52815480313764,16.39736742212895,-1394,69,-1953,12.18040156523374
-456,-132,58980,1392,58449,58554,10.994021589697304,14.610468133371429,17.190752071796354,-283,-868,-1612,16.563707669659788
1757,-206,59657,506,58038,59825,19.834095986832928,10.668557225694324,13.075150655401362,-900,-599,-1270,12.507666874608923
269,506,59207,-1387,59937,59787,19.68570451031165,15.29271141075262,10.826454133061477,1583,1682,543,18.003651619064424
770,708,59596,-192,59905,58514,11.678783872782228,17.12930867786836,19.342082641035105,-974,-558,1147,10.182501019098895
-974,976,58458,-879,59928,59179,10.331956287663507,16.507545671922266,13.904636949730838,-985,-1841,1485,10.957129646865924
1443,635,58848,153,58767,59014,10.733652452276006,14.567232310809981,15.198805670718578,1232,192,1877,18.17422456995049
1421,-762,58412,-1382,58404,58910,11.084632471980482,12.869158773310561,11.96554087189122,766,925,461,14.743397074142809
-839,252,59343,1090,58065,59230,14.407678268697651,18.552281536859525,13.646962809632061,-1217,-1673,-11,15.892995293583333
1287,-1257,59490,-1482,59495,58365,19.421977696195263,16.44915640951171,16.50245215671374,1906,1009,473,19.778090356841908
-129,1540,59855,30,58093,58199,10.646567656493694,12.124802297314496,16.794014294768445,1191,643,-735,14.463379580664512
-1023,-1061,59349,1947,59801,58471,18.284565104576444,13.379842851667293,13.043606447951266,-966,-1978,8,18.912069744226446
1417,1500,59864,-1219,58185,59536,16.25613647371839,17.785961575062192,15.531091184538731,1785,1537,-1671,11.05799268590507
-1398,-688,58406,-472,58337,59693,13.535925770658126,16.944925241719037,11.428462989804206,1432,193,-1223,13.676342887437617
1981,75,59011,-1688,59741,59119,16.963707462368202,18.97661449179892,16.583558143616166,1018,-1358,1545,10.213776414370129
-847,-104,59189,1162,58765,58812,17.963489407811913,17.722710057866006,14.152861966776818,208,1204,1014,16.40245314396347
1978,525,59858,-1276,58729,58956,10.70645886761257,13.472844554908978,16.80924266724859,53,1254,1098,18.643156246185754
1523,-1994,59308,1873,58553,58248,18.239786922373625,19.8707228811568,15.600272577769399,169,-1956,-894,13.044993986745538
1968,129,58119,639,59333,58984,11.831223661822266,16.644223162783206,15.960803867707037,-1075,-506,-914,17.212679844686065
397,300,58451,1310,59019,58905,12.125779003035198,11.073712575121004,14.135765947695733,-651,596,-1665,14.172415614671683
-1572,683,59665,-1083,59274,59821,17.302055664482285,18.216629413973,12.085592680351418,-655,-707,-1051,10.62102987704625
1983,-842,58205,-1894,59907,59538,10.829733354604617,10.228583922881466,12.851287291355188,50,-1338,1249,19.856068867943442
-965,-300,59578,1903,58531,58882,18.544535141493956,14.15006013937231,10.305922304844579,1656,1407,-1241,15.513693967972557
1522,-606,58254,-750,59458,59913,16.683528087825955,19.754054817965226,10.264888053156664,568,-1317,1163,13.055820997826554
-1170,-1778,59159,-742,59320,58188,10.3891356080752,11.610493930483743,15.072427978912659,-1507,-1761,-10,14.413049621819553
-1186,44,58225,-1313,59964,59816,17.851875742693046,16.149823329720356,17.020430835240806,847,-1227,-812,18.8752596603903
1255,-1000,58644,-985,58880,59921,13.71598354323709,12.374160536803423,11.973740570708323,647,1642,1469,13.285404982393203
39,-1386,59779,-1990,58325,59107,15.204768744341322,14.884481732255242,10.570989474730982,-1970,1518,11,17.318822935536637
1120,1359,58068,-716,58319,58806,16.35335931309042,10.52729860391215,16.30780470210505,226,-856,1490,12.054853113177073
-1286,-1628,59647,-1495,59342,58238,14.234631053515665,16.872368921498715,13.247495996972448,52,547,-136,18.899147239583623
-769,-1214,59322,-1095,58207,59159,11.210288683295321,16.845959782234637,16.127148225657862,-485,-1061,-1619,11.786434535032226
-1473,686,58104,1401,59442,59854,16.440273357674748,16.54861891299091,16.710307539616046,-921,-979,-955,13.225488913531446
286,-1471,59124,784,59050,59258,12.860971575394277,19.512132197124195,19.638315947492714,-1952,-237,1907,15.95794751739427
-903,-1074,58919,-43,59918,59693,15.158014399693926,12.894582882825642,13.815732296777508,1832,817,684,17.254364912360188
-709,-855,59632,763,58494,58688,17.98806216680408,11.375657145081364,16.184179852259255,-1458,223,462,19.054434582668208
-1306,781,58948,1572,59582,59031,10.526461900173421,11.297094241591653,16.92044905761632,1553,507,-1700,19.708275123787086
-1454,95,58022,-440,58007,58111,19.245446819935733,14.494140009862114,15.20213425752256,1834,1854,-1559,10.721851733067803
-110,1824,59224,1396,59550,58336,18.537486364546254,10.623428801176535,13.802946689081244,-418,645,759,13.50230498102929
1843,1426,58169,489,58017,58637,18.788708325689527,11.897750480655278,10.105298223143445,1333,-543,104,19.77098713635981
-1220,642,58520,-643,58432,59724,11.108625221626683,11.50367532135855,15.942797384409316,-269,236,-672,18.1716778024767
215,789,59106,1224,58164,58782,16.778405374054998,11.58655918029876,11.577401337925345,-289,-595,-1535,12.023779854392666
-826,-1019,59297,-1625,58622,58110,12.641396023660143,11.711694566705402,16.482289843003755,1175,973,-1940,18.184773213922284
1132,1621,59706,-1029,58677,58011,12.079749833690807,19.724701775110034,15.705010710061021,1898,492,716,13.883290574426377
-1858,-828,58524,1353,58459,58431,12.202395335287779,10.73301349745455,19.297689401066343,-1124,43,1041,12.33872576418438
571,-970,58056,-840,59405,58802,13.820119309733876,19.240354184509297,11.01903843080282,1982,1772,517,15.44432526193223
-2,-187,59507,1440,58460,59027,10.125848235372711,19.124323493046028,13.923192043594781,-1637,1442,573,18.547428701016607
-1194,-1582,59438,1984,58057,58217,14.24647645425506,14.941438776839792,15.307816379423494,590,926,833,16.083936389967793
370,115,59830,63,59107,59263,14.760046532749643,13.008557172397355,15.878043285015595,993,-1283,-848,13.436963749426383
694,418,58469,-1641,58773,59772,19.17003603529482,15.39748938889042,16.501978247646896,-420,-1122,-1596,17.319535217020494
631,1372,59414,716,58603,59495,11.179588302264179,18.44386004236423,12.457592480229659,302,-154,-1118,17.201464550651938
707,250,59467,-664,58481,59746,16.373447000920347,17.964681044800717,10.738917040218979,-1886,-751,896,19.96428161689669
260,107,58723,230,58060,58292,18.56347984599914,16.79208960406971,19.91796267361937,-945,-1220,-1489,13.226993745450352
-1875,-1268,58214,-1427,59432,58076,18.17702858431545,17.59802809813037,13.282164093266125,-381,1715,-975,17.397652600254474
-1977,-734,59659,-1187,58044,58032,15.860642803630125,15.252683947110034,10.376149897426352,1002,-678,-757,14.153690599331462
8,-947,58947,1319,59246,58641,19.797729316365547,15.333150859517762,19.617573847494107,905,1669,1450,17.866332701128584
818,-85,58035,-288,58887,58339,19.537002343124417,16.885381769879974,15.211078313841549,-683,190,1104,12.684530059325851
1450,1041,59754,-1315,58044,59617,16.26644763563557,12.78628480025591,12.084160809636515,582,-1151,-1330,10.568911310778294
1623,-1048,58217,1497,59109,59890,16.292772642312237,12.836468873419513,17.693387421823402,1253,-1717,-995,10.07044588475143
653,-1916,58614,837,59718,58469,12.806518134626778,11.416302866775151,12.574201267824225,-1182,1042,-78,11.394850592005858
214,-1214,59200,-394,58007,58401,16.55332460782338,14.286135415915618,11.082244573192124,-856,1335,1628,16.405717555461443
-1570,-507,58669,1237,58270,59154,14.002610448713895,16.69099843611414,17.665990846942684,-1785,1409,1436,16.53823266992185
1248,-699,58204,-1000,59165,59913,12.11570752929456,17.481899019294822,10.359697606559827,-857,-828,-33,18.821333942839622
-1354,-102,59820,-875,58304,59656,16.947747346535746,13.453512097146152,12.59387319467425,-231,-248,-1590,18.677003045395683
757,87,59886,-1779,58267,58199,14.659680871364042,12.359276029220823,17.108646515747335,1674,-749,1883,11.542554868422375
170,559,58414,-135,58998,58762,11.694063113536563,19.8724883653053,18.938785634798315,1603,1368,519,14.285353195206293
537,-488,58357,773,58344,58902,10.668851863531106,19.40400225439449,14.478089493219965,-612,1953,1141,11.828267857941873
-1955,-1172,58896,-1152,59779,59861,16.93154985944975,15.93834166896057,14.38901528569183,-1946,-915,-170,10.27403751087534
-1725,-1573,58613,147,59349,58006,18.64481667446171,19.45511209685123,16.017476791008814,1183,509,-1184,15.470919477819841
-927,-263,58141,-1411,59597,59933,17.53236682403858,13.68374284859997,12.343104547735617,775,757,-1070,10.695596959739447
1047,-1070,59666,-1753,59831,59672,19.915019759866574,19.706425814103667,11.512323467212909,1547,1883,-1906,16.06142409604828
-1041,1851,58560,-401,58430,58626,18.18102539070037,12.425016753711517,17.7226463080254,-401,-1363,-1558,10.968620465871336
-1097,985,59479,-995,59202,59559,14.477205111817577,16.682437078407762,17.80943286709136,-1232,305,-148,12.637611235229244
-1154,-1049,59689,-807,58138,58917,13.048811007396441,12.734692549871252,19.422552825955545,1172,474,1019,16.23277774359442
686,-1781,58615,-482,58960,59838,19.684415274781465,14.284893137626717,18.933566163179364,75,374,1418,12.636770022454831
282,1533,58519,1925,58573,59029,18.652381717645316,17.237637024542188,15.24421603750373,-1255,-1350,1067,16.70233001423289
1410,-698,59147,-989,59834,58669,18.162851304935305,17.028001810173166,10.98485033619523,-733,-1000,1468,14.361377378723276
176,-1033,58232,661,59922,58435,17.810999275635705,11.844028111940785,12.541978805286817,1857,732,1422,13.153559060766895
-1875,-855,59428,-335,59785,58262,11.076660633653333,12.84601297836475,18.35152618448443,98,-488,599,18.087228043978374
7,-104,58105,-257,59333,59386,10.717815783794187,10.621779465673125,18.403874869661813,303,-290,1083,12.15475039629388
-1510,-958,59877,1717,58271,59798,19.963314111645577,18.5903993786321,16.165258388733243,749,-1893,726,15.121708858952253
1347,-1242,59268,193,58749,59878,16.98720546582078,19.540509710101055,17.07051833368486,993,-1212,-472,17.86205974834852
-1235,-1452,58306,921,58548,58179,18.147142044466683,14.638139937533763,18.00107611450496,722,852,1071,17.24694498478331
-1954,1056,59936,-139,58364,58066,14.145472190065764,10.54761037590745,14.164516743073733,-1456,827,153,14.133908579410715
425,-548,58808,-79,59171,58834,19.455956548367894,19.614278988052362,15.164275292678749,498,-103,-1490,15.468033478605062
-1625,1221,59466,1302,58298,58469,19.867091308984797,19.084260465299586,18.394986114735424,1438,1746,-585,19.02449668255047
666,-1672,59193,397,58775,59076,13.34303032965571,18.587039313932745,13.167189455337711,-604,706,-776,13.269243486138912
-1624,65,59422,968,58262,58680,10.619781917166877,14.670969619200708,18.0381704737968,265,1694,1683,16.22627013345454
393,-998,59289,186,59635,58607,10.959359592636277,16.162416869524446,14.048858689356557,929,-414,54,12.521841315199886
-93,97,58932,469,58880,59178,10.761530833262619,19.630644264674245,19.01059952150164,-1622,-647,-1873,11.47369602780923
-86,1616,59263,306,59068,58174,15.488359949950242,10.624588684424218,17.600288205169,-1203,-1476,582,18.139520753704446
-1372,1931,58202,-882,59542,59680,15.897941121689989,18.493303328809812,19.67008890633761,-960,1225,876,18.028283888741022
-1446,1703,58623,-1,59250,59788,11.744682223071631,18.139917876143606,15.879472686898044,369,804,-119,19.70746092795256
-747,296,58671,183,58339,58620,16.82549139231603,14.35644412139236,11.579029885326495,-1257,-1100,-39,19.78495240229021
114,1494,59275,1928,58570,58711,14.028863208844797,12.543072010560557,16.327125319995737,-840,-839,-1743,10.167909901057769
1841,-1478,58347,-1120,58191,58426,15.62094758340168,14.91100957307805,17.29449277854444,1956,-1058,850,13.426824013475514
514,995,58290,174,59054,58664,17.723316854666585,18.25538553660266,15.01280591610654,1835,71,-1059,19.129265512282224
-1145,198,59078,-1874,59845,59866,16.773824813282232,10.266549978784328,11.91063544115263,-1060,570,-840,18.574314298105715
1919,-33,59860,197,59523,59702,13.234457242525014,12.597792002659713,14.315856838922368,266,96,-1464,17.499614002378514
1227,1011,58169,1825,58933,58653,12.339574846052209,10.354432042596319,11.665571456145338,-1651,1352,-1077,19.305077281528746
-552,-515,59707,-9,58548,59999,15.464049362925216,17.750994918232607,12.154562080979883,21,-1552,-708,13.908220528081692
-1513,-816,58082,1571,58702,58801,15.165102214474489,11.804842946504913,14.000509913760784,-7,641,-259,14.108616680401836
1942,451,58927,1805,59037,58738,11.84785433439091,16.629697418819,15.345546787847528,1484,-803,-653,11.449565528700209
-1693,-647,58960,499,59504,58817,15.877919667038778,13.572796407305058,18.95934167366606,-933,-389,-1097,18.556151832614887
1227,471,59691,1682,58076,59687,11.989316225800893,16.14994772638563,15.256044349665306,-291,-1843,1980,18.257911937681005
1249,1914,59488,458,59813,58073,12.359042007612725,14.569642590742374,19.962180819401944,1276,-1335,-1549,17.065853515414222
-328,1971,59485,-644,59820,58906,12.688511762475752,18.77945841113339,18.935701689219087,-406,-1962,-91,18.567796401927183
-1197,-184,59122,-139,59111,59183,19.648466459916357,18.925368134883296,13.747679689599408,-1460,-1292,597,14.236583526743434
-1640,-373,59351,-431,58783,59456,15.548158537667932,17.683024160556553,17.81804144798291,-1409,-1488,371,15.65308661180988
-650,-435,58722,1534,59619,59187,18.784831363460416,14.322429773021195,16.653420724597265,1537,-1069,804,11.029789764884585
202,237,59365,-1962,59877,58199,17.230761784041107,14.347229169067692,13.46075495765861,1674,1106,-1430,16.92804113535491
1162,1879,58560,15,58254,59774,18.64274888682417,14.266472086312902,14.994953979013022,1271,963,1827,19.42776185543065
-1669,-1566,58059,-1456,58862,59454,11.628622096629904,10.52102331085652,12.82793223845696,1359,1995,1394,18.33240179127789
-1720,1120,58750,218,59303,58422,17.274398437725182,18.199274765521512,16.538251308642042,727,-835,1155,18.520731362928483
655,-1441,59265,1591,58231,59659,19.97981958354214,16.9078142702174,15.31039223841605,-217,554,154,10.212226805586473
534,849,59881,-1959,58549,59905,13.56335204590501,17.10218746620768,19.830564713369455,109,1046,604,10.880312785838237
-1789,-157,58068,-1089,59605,59936,14.8441774714536,10.826147532897933,17.80646646116604,-1460,552,255,10.363662779774373
-944,684,59436,1234,59127,59853,11.298254998063292,18.19777696148594,14.091837236710695,-1385,-1424,-395,12.582783768060049
-869,1717,59417,-517,59700,58429,17.515760657655065,10.971815964250016,19.033596188882786,-158,1229,-1155,10.155702711669171
1865,1698,59718,1766,58602,59975,17.49791444436647,11.170301658092423,18.35142023954828,927,831,-97,12.79566779424914
-1338,515,58056,1085,59645,58867,19.911335888282537,18.1900325984104,15.872396927573288,1061,-843,-1621,11.630408082043239
480,-1999,59037,1320,58680,59284,12.647565708238721,17.47321179020186,10.857359302911915,1691,1633,-1645,15.469891877942736
-1600,815,59653,-1987,59657,59362,14.096232966789547,14.588565045730235,17.370875956971798,-1745,1353,-1603,19.935164172504074
-1085,-147,58321,1377,58266,58811,10.285290983044105,12.661785608543228,16.408564029502504,1729,480,-99,19.23554355257518
791,-987,59743,1411,59189,58083,13.919506915819433,15.763534986703643,15.05803226592706,-1995,880,1321,15.062470936899803
524,848,58047,-107,58866,59568,15.860502272894816,12.262702172858855,19.827218027679727,519,-629,861,10.752611464040028
-1171,-349,59147,-1431,59522,59524,16.40403674830165,11.826104286263341,14.934467490733763,-885,-264,-1325,15.175654269431385
299,-1534,58197,1713,58502,59046,15.886133060483395,11.919177222523524,11.964686052686272,-1171,6,1291,11.844654847899951
-1898,1052,59767,-1921,58936,58328,11.097061861223374,15.015880153046353,18.322026127742916,1732,-1718,874,14.547189935744989
763,-1700,58370,-1681,59910,59646,15.978589428491926,19.198274521760958,16.252521936369096,1928,-663,997,13.479927133250733
-1620,-1017,59641,1542,58381,59950,15.986100601052378,14.037641534581727,10.655062661440194,-819,-98,-1821,19.961945341874465
-1557,109,59142,-983,59949,59994,14.762289982526603,19.468185887783697,18.848451215103395,1335,1953,-1240,13.402442327456074
-1526,1177,59464,1047,58808,59425,14.85086526742711,13.202591673308977,13.053152385749538,-1766,1668,52,16.407233033443305
-1473,-1174,58246,1976,59470,58040,19.426913467927967,19.515064348289908,11.824882475552212,-1945,1311,1307,13.180928477474477
-282,-1580,59328,-1567,58163,58960,14.056544417736498,13.475605747488473,14.651089067174716,-1550,-1367,-630,11.185889069230821
1327,351,58772,1857,59806,58869,18.197602803889573,12.753885729612062,10.069942777364156,-1398,1005,521,19.709997829155718
1780,1064,59138,988,59828,58310,15.476209918637526,11.64437198444399,14.15787143629301,1031,1702,-1914,18.814857260509843
297,211,59006,-1377,58374,58389,18.223578756687523,14.33259512981966,19.40891683174936,-639,-844,-1216,16.637399922738528
-770,1326,58985,-1032,58137,59957,13.304301931869865,15.422595403283283,16.392031672298632,983,-1593,-1246,18.61988470037406
-314,1358,58667,1126,58276,59463,13.40058455588098,10.67026237203381,16.69690401859087,-964,-626,-1223,18.544976255506832
-938,1152,59056,1527,58933,58196,13.522905642924375,19.341621836787397,17.90786467413154,-76,992,-338,15.973590734063833
-1697,213,59935,1289,58612,58935,13.583272515136553,17.28387257387807,18.63680016857559,-534,-685,-782,10.996497639408865
741,1918,59883,-1229,59517,58971,18.289047117240536,12.942010281757685,11.202702844998582,59,416,-1038,14.155923351507266
880,-397,59415,89,58456,59013,10.047005399902622,19.56224559973839,16.590163848975322,1511,1300,787,14.311093411307526
-1957,976,58031,-180,59753,59538,10.870585373382058,16.653532431158347,16.77177504574427,-1768,1128,518,14.721875887351699
-1221,1100,58353,-782,59860,59434,15.448338382118198,17.4485274412223,10.062890657207829,945,1229,-682,15.834596514449611
1608,1302,59898,1215,58839,59248,14.078288122739538,13.79020355554524,10.292228704941772,886,-336,-1965,18.914674975496283
306,-602,58480,253,59205,58969,12.22552871393223,18.36067063396529,18.93700283616605,1285,-1536,-134,13.45192369685294
110,838,59112,-1477,59040,59461,16.29127494910057,12.007863534109815,12.734531416987872,-1922,1455,-959,11.954004841078675
59,-1358,59434,-233,58830,59179,14.766685261740218,14.975377129575886,10.108317584691102,678,1453,-1795,10.198616711853518
-667,-1958,59343,-1668,58811,58519,10.64593494705304,14.791357124198441,17.98829472638728,-388,-450,252,13.219239645377808
-890,1132,58675,1383,59823,58637,17.940876331574323,10.911532411778452,17.365011204726898,1487,1086,-1259,10.233059572449436
837,-272,58219,1662,58170,59315,12.47526421125187,17.79637717306222,19.665236230880915,-302,-1979,1005,12.005900683645084
-1844,-1336,59995,-1660,59575,59211,18.477010671029667,12.029135318099925,16.56732063724374,-830,-145,239,19.90188889054996
-1891,-145,58615,-1943,59280,59825,16.02527492293825,11.888401259339858,12.416070948614635,1921,1835,-1490,14.594979768288958
1556,-581,59498,-1826,59836,58513,13.770797470752044,12.18900911264864,13.84072155657762,-1034,757,191,16.71919825725392
1859,-736,59947,178,58080,59554,16.157567866088502,17.442057373061687,13.696543689188376,91,-1419,-1209,16.273412211131316
1336,-176,59985,1945,58741,58630,15.592042413860899,13.016034566221633,19.464451810239574,388,-819,585,19.981663001839877
-737,-1911,58979,500,59744,59223,13.68733931780384,15.511547317593084,19.009515094802826,-737,-467,207,12.020039417766256
865,-107,59692,1498,58419,59731,19.359568306909125,17.079170992042435,11.23756342493744,-667,-1582,568,10.21276085022211
-1932,1762,59166,-547,59424,59627,12.269556150901941,14.911733629024795,14.635651824170852,892,1513,1634,14.902271341551586
-1182,-311,59340,-1992,59214,58211,18.82547853959384,16.103534444135565,19.678783123873778,-1268,-331,1137,19.136266533628103
1083,427,58118,892,59261,59244,11.83315287002242,16.391829205178254,15.302498879199723,1843,548,-493,12.504564756336832
1850,-1283,58202,605,58913,59617,18.345113931717787,12.71305261042019,15.533968828566369,104,109,660,19.593190497756027
-698,-966,59686,46,59274,59584,17.72053927508117,11.00350325470856,14.605579130715965,-236,1308,1328,14.751779798667592
532,798,58800,-1096,59105,58856,14.00961063017473,15.931272042662833,18.332181229790336,-1591,-76,1817,13.792115009072846
-443,112,58985,-1003,59042,59660,14.302634403637319,11.305510116790497,19.202966229230768,-876,1763,-221,17.349091933778798
1351,717,59635,1549,58873,58828,16.23028115233737,14.809295491799908,10.243956150549977,856,900,990,13.57055270139589
1421,360,58453,1540,59011,59660,12.594138747775617,18.33982230255363,13.503174552366394,445,-285,-1056,15.398969465639079
181,1637,58512,-359,59488,58140,11.240327806597586,10.7861322886303,17.170049177855557,-1132,906,-1413,19.207926504719406
1637,710,58339,486,58112,59819,13.568749256038116,18.32969315272546,16.94857106327852,1302,169,-1574,15.314326778683512
921,-966,59072,-236,58451,59421,15.55043515261282,16.475130815193474,13.915863808769766,867,723,-351,16.26791158755009
-1306,1261,59613,431,58582,58486,13.300112779650295,10.839073206356286,14.451970984272585,1301,1916,-430,15.530612179233382
-1405,-1889,59724,1994,58296,58082,16.77133651449527,11.668200200686341,16.8352851392556,1539,1859,1621,10.693503797997838
261,-1036,58642,598,59551,58662,13.152520217375619,14.107870531685595,13.38194448101334,1886,1374,161,15.497873597744267
-1602,92,59135,1857,58788,58561,13.242558191353625,11.148272058791234,15.203384376764026,841,-1635,-230,12.916433243932472
287,-247,59473,704,58309,58632,16.312551621742735,11.540193449368575,12.989017586950649,-1692,553,-468,19.711814929039143
158,1397,58816,808,59931,59474,15.861875570014723,13.726415377280922,18.96071306224158,-99,666,-1453,15.517440998837413
760,1511,59449,991,58308,59481,12.550121002568378,17.902505659635697,15.927248662802901,-1904,611,-1449,12.840607731337142
-579,-1306,59752,-1768,58163,58415,17.460276990431268,12.764828323864858,14.64006638275244,455,1581,1864,15.769971038888109
-1926,1057,59727,501,59253,58921,12.0517820329201,15.059591003174228,15.688497829430204,741,-1782,-23,16.979866250165603
1724,-414,59162,-527,58907,58875,11.605436060877496,14.30698435588075,18.746836760844644,129,1012,698,14.501132680929823
1726,-1737,59952,-1014,58091,59173,14.080287766713507,15.246387238041859,15.406507505740626,169,1909,-485,12.132745997876306
-1977,-348,59590,828,59684,59112,16.530612220935225,16.078378348888002,12.425574753974635,797,1962,969,13.259502252896862
1583,891,58659,1250,58913,58158,13.222589702861336,16.35864404392317,10.274124937271434,-1256,373,1389,19.238652007913217
-238,-1906,58672,412,58677,58240,11.681190582511409,14.211687316277143,15.780770753055835,-347,-1499,1162,15.547841767436665
433,367,58026,621,58839,59126,12.96230482457575,18.91161961475953,10.694803956881195,897,-248,-572,10.020465590442267
-1601,-673,59806,130,58210,59528,14.746114847389087,11.7390088781838,11.595413708577793,340,-1863,1741,18.94726014896365
-1013,7,59177,-1698,58196,59217,17.964457597863372,17.780071763729875,17.820070425831517,-1629,1280,642,11.344660698548436
1451,-156,58845,-1412,58052,59522,15.493287247117507,10.702298798813324,14.156471055073492,429,110,1141,15.83382836218218
1373,-413,58839,-1864,58584,58538,16.15903229647235,12.019027904716285,14.760830274712369,-835,-1006,-52,12.352826835214518
-1252,-146,59346,-324,58328,58835,18.523041605527666,11.044061303259824,16.323856008033353,-1456,-280,43,18.15765228056544
1965,318,59183,-1545,59089,59243,17.402649798682504,14.727245653357404,13.669062984510795,-1198,640,-1670,16.53570182415745
370,739,58175,1235,59862,59308,15.450093909954795,16.91262838624743,10.026529670789824,-1524,1347,-543,13.792629808749009
1334,907,58172,1364,58530,58578,12.027666071293746,12.140988619994012,15.028586221958815,496,1992,92,15.953887070384726
232,-1910,58364,-1876,59985,58646,13.817143718710145,18.19353805771223,12.09675863159343,421,321,1095,12.177588533045029
1856,-1640,58897,-325,58114,58550,15.864500734235921,12.64882541654157,16.356027592537377,251,1456,-1862,17.745478549021456
-1885,147,58100,-331,59941,59809,19.785349930979713,11.06472077603894,14.844333184453673,-259,866,1740,10.990674848624405
-1013,826,58304,1483,58271,58413,19.45003445237991,10.600167446309465,11.064056953300543,-1815,1295,290,14.85041446065393
484,-1724,58947,-316,58566,58541,19.838801084997023,19.53025105345784,10.346055176245773,916,-546,1137,13.568213514610257
515,-1914,59382,1744,59579,58716,13.930738892238333,10.435629701799455,16.0779033258294,1411,201,-1287,10.361155848544238
-438,-715,58006,-934,59548,58173,15.59782229448566,13.467763179394304,10.752370834694805,615,-1346,1239,13.010700831590139
1752,644,58717,1403,59321,59237,16.870677059437,10.601105105811687,17.731486400599444,-791,-1416,1986,19.356803628217136
819,-841,59702,1275,59774,58311,10.559480325679303,15.517442786694797,16.93447280800343,-979,-16,-1700,11.707428568724957
427,724,58540,-1999,59257,58486,17.254232193296403,15.867108634443236,15.76136253364089,568,-905,439,17.93080063940076
-385,-1236,59566,1661,59786,59387,11.76131167662733,17.968961936456566,17.234651800755866,-1887,1022,139,16.40811309289964
39,-1288,59190,-1337,58268,59430,18.574785005309273,11.163694906282132,17.68328604115705,-1660,250,-98,12.38567016037446
3,1784,59589,336,58427,58764,18.547760871834264,14.060048370848811,16.792380775961025,918,324,-869,19.077910393183277
-1633,1115,58985,-716,59984,58068,14.319594172203463,18.69156416324515,12.31725334784052,-1028,1544,1957,13.808073963773413
1664,1357,59786,-1969,58955,58674,18.707806843439737,14.64799357036389,12.834491710203519,1307,-739,-1982,14.452170308848595
843,688,59758,181,58597,58753,12.6472968980435,13.376311623362017,18.693130819129287,-256,1997,-70,14.780645795367345
1922,-1598,58483,-85,59901,58633,18.03492644440675,17.03024349731532,10.912121449527149,-1931,1157,591,11.645903490611666
-141,902,58959,491,58645,58934,16.314353463540762,13.258449836224615,17.176681024514576,199,-1640,-1190,11.18150480634471
704,1075,59898,-1921,59319,58426,15.70224192255532,17.128683050013215,12.302663737786006,-539,1459,-1908,16.909178862038736
-1803,1835,59370,-1287,59101,58154,13.00445150678351,10.065024309719771,11.649133772599587,-1437,1976,-1225,13.204685062383286
-584,1209,59370,1155,58925,59794,17.064093841819385,11.06184312056553,14.84604605371413,645,1861,1299,17.788537185742147
-1158,968,58769,-1409,59232,58871,13.793838933281695,19.792710381587963,13.188527906291984,-924,654,-1159,10.82067949005562
-341,-304,59490,-1005,58456,59340,16.087723770611543,12.687369792912262,15.810668652097256,-1660,-1318,-1798,16.35599208449962
-1332,1473,59850,628,59570,59760,13.98020503451053,11.464054645119647,15.751409618929685,-1160,1077,947,16.250041772558085
-82,1758,59114,134,58812,58842,13.903198424132826,19.807420682347335,11.050329714152667,-1430,1655,1002,16.02121114050938
-568,1314,59544,46,58001,59599,12.135614610457438,12.83599189446857,12.13223171022248,-586,-121,-113,10.319434611013156
-429,1167,58048,-156,58975,59965,14.165704987344135,13.04766243025921,18.279113260464307,-834,-234,397,12.604472714407091
1755,-1545,58067,-961,59012,59789,19.479638636789105,19.255543136933397,14.784205899321739,-1412,769,905,12.997730954289445
1705,-826,58390,335,59549,59632,15.485621017786517,16.824497212160843,17.078611798717528,-200,220,-1222,10.522935488825457
-951,695,58197,1425,58209,59529,13.319836829791557,12.862017713895883,14.873000763854055,1001,1511,-1025,13.096721888107176
-1767,747,59429,1543,59884,58747,19.333676995727075,15.329364802020768,18.467654111840158,-824,759,-1522,18.329400539184196
-592,-536,59689,-1223,58354,59332,10.757416533628078,18.955246636145173,10.90856303922106,344,-806,263,18.834854978990457
-793,186,59248,350,58113,59786,14.154752941789052,12.109723074528045,16.864643917713423,84,-106,-1462,19.201802680278593
1618,84,58730,1524,58189,59788,11.732526151619396,19.021104223278577,12.689776407577686,786,738,-1140,18.608210539710225
607,298,58659,-1778,58834,59232,17.64068744040144,11.076678457690969,13.371891818289138,469,542,1472,16.731836129471578
353,5,58101,-327,58085,59364,10.808529663428347,13.605418975368107,18.49576117123403,464,1374,1662,10.09148663550385
1190,949,58698,-1512,58177,59412,13.093358195900935,12.201382749631357,15.770117496740394,1353,937,1989,18.749455258975395
-1637,814,58696,795,59346,58069,10.247581664140853,18.811186152969164,13.085469658905101,-1380,-1682,-793,16.34935644676432
-718,946,58411,-1591,58395,59630,14.87382667234775,16.050618077152798,19.704634281073396,1847,-839,-1226,11.668663193616437
-1278,-1407,59041,1189,58525,58986,13.577939677149672,16.404956365574638,13.098442263265051,481,-598,-1374,13.40947436944713
377,1190,58960,-1214,58036,58470,16.21954783872751,15.587144315098875,14.947865891221838,-1704,252,-871,14.0629842504952
-374,727,59289,1824,58812,59203,12.503580746172615,10.18222368291591,19.991662478947678,-471,-649,1547,14.331616588385016
1550,1823,59695,1779,59643,58542,11.275619597168077,16.70728852046707,10.884176554792242,-81,1735,1207,19.64010600802591
1271,-1014,58465,-1766,58763,58287,17.97520533381777,15.377958183951325,11.477801595393558,1985,-657,1733,13.144884861774095
1203,-369,59104,-1037,59903,59167,14.76397879632621,12.345696994225143,11.61330996827235,475,-933,1464,18.20726613806872
-958,-866,58947,1487,59329,59841,14.849612911997824,18.084489762597187,19.715529877577147,-1434,-1203,-1261,11.197468044072696
1368,-720,58445,-47,58888,59106,16.355505490930074,14.645387083208849,12.015775617721026,1227,13,-1276,11.409480493239803
-1276,1206,58912,-1912,58822,59640,18.56763177766706,18.299064232090807,19.78273942974556,1544,-727,1494,10.752200216814593
-1768,-221,58010,-1718,58251,58011,15.433694082080297,15.81462531685556,10.66598490301352,1457,-1953,202,16.27891437338246
-1053,-328,58813,-1847,59888,58098,14.560428185795526,19.425491579221976,10.112896616043852,1880,296,-1385,10.542068376927375
861,-1549,59168,-1505,59762,58609,17.507411462201002,16.007401066791203,18.668658865965245,-969,-1225,-1118,16.117876377244823
-1297,1039,59782,-1184,59884,58453,10.290592092656594,15.745447324533846,19.6109155873701,-829,-1316,-1632,17.475756501865064
1968,-188,58819,1522,59807,59289,13.691146972823278,19.8527838326425,18.07073293407985,1939,-1789,642,16.712319861195517
-1720,1180,58184,-1809,59896,59696,11.607997309353722,17.61379747635778,11.951223080050253,-39,1057,822,14.161566968758214
-1226,305,58537,-742,58199,59007,13.972081010598014,12.495566071044921,12.474355327058081,-906,653,1460,19.692345617872505
1585,406,58806,-172,59837,58147,18.053243859144825,12.51775529507226,15.985664216257938,1019,-140,3,12.060498210424868
-82,380,59589,-475,58928,59770,14.390663297450722,18.884346240418573,11.507924877466616,166,984,986,19.055714255120773
-929,-430,59367,1684,58638,58962,12.574961994188769,15.071869176613642,12.24503621196861,-141,1367,369,17.006147937722027
1314,456,59591,56,58977,59331,13.036834290220984,14.179599333920033,19.159879168283137,-1699,-797,1120,19.56774549727576
-541,1429,58001,1948,58994,59647,14.560803491385823,19.281116323710034,13.500755508619482,-1662,-693,198,12.20750918972455
-179,1124,58478,1322,58566,59979,18.49262608887758,10.036437689318184,19.90430808837433,-1516,1048,486,11.097228256251089
-1320,343,59641,-1452,58921,59012,16.299009998115814,18.41981679747333,19.780604228294912,-977,803,1796,19.252586425606083
-446,202,58640,1312,59138,59810,14.705413834894339,11.141058042154015,19.766373172972088,784,-432,757,19.824550249558605
-1445,-1238,59870,-392,58289,58949,10.547848313164286,19.349235106878794,13.550734868522085,-590,-496,-1851,13.253094877618004
-305,461,59109,1806,59768,58816,10.314595771689053,18.7135038845147,13.219380884856045,63,-477,-427,19.99316793790163
-1669,-1610,59187,-932,59544,59153,17.651104711485342,17.949239580288108,10.334937120957713,1364,-1147,1405,18.351354727288143
704,7,59401,-80,58223,59764,19.384107598438113,16.097852702015423,15.848958540318897,-1912,-294,48,19.466891847374864
-1678,1042,59044,-773,58367,59492,17.234722855942685,11.5244082055071,15.686259470359012,1809,-1343,-1316,19.105880886915024
-1064,-1940,59477,1086,59143,59706,10.932132027033587,18.61925105972619,14.705466631796465,1497,-70,-868,13.589220279359449
1778,1691,59100,-1361,59739,59817,15.965902480258965,15.698832911109669,14.00603405907401,-926,1941,-871,19.88990522965139
-961,1219,58870,867,59377,59129,18.223058354480127,12.217148910348445,10.117967563705468,1972,430,-679,16.626293557522523
-1254,809,58938,-639,58677,59036,18.278704215469443,12.263295326310846,10.099230189539133,-58,1081,-1095,10.566023368094054
-619,338,58979,808,59698,58090,10.390432131303836,18.61406107381957,19.21140818480774,-549,441,-4,15.804818180886237
-344,380,59655,-40,58763,58434,15.354946033521031,19.6803452382609,18.39583108015326,-1428,1333,-962,19.270561599639542
1813,-570,58875,1147,59378,59164,16.045305183267722,17.506353619134963,17.069736326993294,-767,1751,828,11.369667680791144
1945,-1508,59589,-473,58164,58069,17.8534116949721,19.201532582858984,13.327853774799706,-875,1632,-1632,12.718341814417965
459,-1230,59490,50,59437,58727,11.451537661740947,14.281850303044251,10.819402772020466,-124,1449,1808,18.413556641266585
458,1508,59999,-1382,58681,58238,18.924399254039038,19.48513920268654,12.08656190820911,-1635,-372,1204,16.196877010979023
623,-1183,58156,-766,58245,59706,19.19055707163224,19.264457035013606,14.082938164420131,-993,-1659,1627,15.397250841606898
1041,-1539,58950,-1533,59136,59885,19.420034643291785,16.61668371055571,13.961581724915302,-729,-1774,-908,12.299563854749014
-814,-711,59361,1870,59452,58671,12.069905563343681,16.625989270510566,18.87112743716248,1997,1597,1299,16.549279337098845
-786,524,59805,570,59919,58392,14.97896346867897,19.596696655485097,11.361737211123934,1224,1924,1877,17.916684365299517
-320,-1257,58703,199,58566,59029,15.172531552502214,13.029905214886545,15.835221039400501,287,-1065,1737,18.72540128088625
720,-880,59580,1804,59758,59754,10.310963902486295,19.64767145757407,12.951379748209444,1241,805,-1580,12.042243054662563
-1074,592,58045,-1717,59506,59692,13.592205445703982,16.753976036613892,13.182065972111332,227,-1051,-265,18.412213829773762
-69,1970,59023,1498,59296,58652,14.84527547973752,16.002652098023795,12.784637182984646,907,-1902,375,15.9396613355848
-355,-82,58436,219,59872,58640,13.071438981435747,11.009241274163358,16.75561790046607,870,857,-1287,15.418843643528358
1423,619,59649,-1633,58178,58758,15.586411189757195,14.623457374703028,15.545328896067653,1192,1341,-1083,19.216014862867684
743,-477,58422,474,58566,59930,13.63021970955331,14.588243264414835,12.156530998703118,1436,361,690,19.208884777207793
-172,-1010,59347,-1337,59684,59241,16.809577906897836,14.08152979100879,16.89819793256589,-1033,264,-151,15.40035667667134
-1853,-1641,59768,-1458,59996,59222,16.981032749005447,19.693233521737714,18.730828963204903,1622,-578,1563,10.093915881131103
-494,-500,58876,-139,58349,58550,18.256942547124545,14.577657838825331,11.553662688551057,1064,-313,-653,17.731541106201153
-1232,-32,59302,465,58525,59886,11.60000187972532,11.99516520641066,15.487208228793314,-630,1079,936,13.570078150954107
-74,-391,58573,1962,58294,59377,11.767120250916086,19.3093885487142,13.280018035805652,-541,608,1557,17.042627797836033
1523,1576,58037,1168,58330,58778,15.437460486387671,12.669092685132629,15.08819198583553,-691,-792,1435,11.101373950509503
549,-1046,58215,449,59582,59244,19.39752459416972,11.867957898409943,17.528585572869776,-1351,-525,1002,17.55992071118743
-182,252,58468,-557,58155,59270,15.678198021788447,11.206744224291073,13.56576693682081,-1758,-303,-506,11.797102269208565
1372,1043,59879,-827,59530,58499,12.199141570699336,13.872552794619462,16.794487026417457,-1724,-344,1103,14.143901800880124
877,443,58961,989,58851,58942,18.850761227284266,19.017246243914663,17.016396688214805,-40,7,-1120,18.50379070809376
-1901,1810,59193,-1508,58097,58702,15.709649250649669,13.039766931639281,12.267676125383078,1457,373,-1061,17.23487183265631
-871,-1806,59965,419,58863,58388,10.210673116435924,10.533675883319699,10.027509978737676,-690,1076,-1278,13.443527517420746
-1964,106,59821,1420,59374,59322,19.887657015654096,19.91926856960043,14.467743301975869,-1665,1343,-91,16.80058194806618
-1301,-418,58409,-378,58949,59350,18.167698731429148,14.10625146620033,13.039787911012931,1094,-780,-622,17.31533947706594
-1422,-673,59128,-244,58875,58391,17.76248992965314,17.706137866153142,18.68291975388866,1491,-350,-1902,15.502390141694836
187,-275,59036,-502,58213,58633,18.856632261314004,19.142020923375654,17.387382414581225,-1658,934,-908,19.432092075063974
-709,39,59098,-689,59761,59911,17.573957140109947,12.638530056723608,10.830282638245198,1277,-1921,29,10.56208691562251
29,605,58328,904,58600,58480,15.068349034802248,14.292027445567049,17.60154946561994,501,855,634,18.12586607899102
142,-1867,59829,-891,58826,59941,18.90791088503495,12.180836761320268,12.505926607545131,-535,1258,-192,19.984588255672506
1575,721,58792,-689,59670,58998,11.123186727138236,16.12796376082028,15.097742200809893,1261,-1998,537,14.510144550316527
-1097,-1699,58730,-1391,58392,59921,12.31117149944366,18.875307330251246,17.918513457227185,139,1871,1736,11.557756380069552
976,-525,58359,1049,59649,58731,16.76408578941033,19.42824817367262,12.762560352333114,-468,-157,808,18.215561918390485
-1176,1843,59238,1767,58640,59468,18.616828289385296,19.38001026844764,17.82385102954275,-938,1269,478,13.418522272823385
-728,-733,59325,759,58875,58910,11.518926122762936,16.318394069017373,15.024053361559108,-1083,9,702,10.43343303332886
860,351,59025,1153,59287,58969,11.12385867391472,19.36830336711504,12.904407176434743,279,214,1996,17.524630035519312
562,1288,59441,1935,58391,59325,17.56832036755747,15.743526418850795,12.822649944951237,-1182,675,-1089,14.27236078974755
82,474,58864,-192,58831,58496,11.156646187287675,11.680830747168129,19.432578619869673,754,1303,532,10.468240910823972
-1993,694,58106,1224,59567,58249,18.1891685608563,16.894207069894865,19.030786948560255,413,-817,-908,15.309458921911347
1457,1648,59730,-887,59367,59493,17.910842390344506,19.026835600976394,18.783112434297838,-1628,867,-42,18.60881706820421
376,1225,58254,-1950,58337,58077,18.944413159673758,13.068975133198379,17.8846936745638,-88,1622,222,17.168558302007796
793,-1411,58546,-380,59398,58643,11.12920691118719,15.152042579312567,15.90921772448933,-1633,-783,-1005,17.67186209699257
-385,41,58687,37,58373,59230,11.106804908816335,18.010703835279877,11.688840592544972,1953,-457,-1372,18.435583100074336
-1161,1661,59934,586,59561,58836,14.583846132401721,18.27348536200887,14.383747996891742,183,957,-1727,18.864726454595754
1767,-1255,58887,-84,58539,58070,13.194088681723473,15.877606242155107,15.61508359496675,-1935,-1261,749,18.894572269362406
908,441,59268,-901,58277,59957,16.001057202117437,12.95120089653117,18.44446786103598,1772,-1147,-116,18.953891929750142
-492,322,58889,412,59524,58752,11.213724436428574,10.567506046853648,10.057665327935698,373,-18,1474,13.702605772624075
-1724,1752,59701,399,59525,58613,15.525337549203616,15.727084177096668,16.171480498324986,590,-1857,410,11.919441291903826
1597,747,58272,-934,59149,59320,10.347212979181428,13.420812958522951,17.176159371198253,-1801,-15,48,11.7015586646562
1300,495,59474,-27,58493,58954,19.993803429538158,12.323656140861171,16.22689441745257,964,1380,-1355,11.526693310203273
89,399,59212,-634,58661,59184,14.510563518782805,15.618741663530962,19.41056935202497,1248,604,285,14.170181264069782
-296,1319,58343,-1096,59467,58054,11.842472987977683,12.03715419229022,12.848402513872564,203,-377,1389,16.171399298056723
892,-33,58811,1196,58857,58620,13.143309022764733,10.951921833220947,16.949867658759626,-451,-1074,-1835,18.60215570121752
-178,1062,58485,1317,58255,59671,19.432579267901623,11.354452453550332,19.770506415907803,1837,-774,1951,18.730622831655367
1862,-1959,58920,-1425,59534,59458,14.758020190827457,15.261753815392792,15.404688821250502,1507,1728,1665,10.441314239662963
1876,-1649,58985,527,58415,58071,12.81463073294623,11.272043687455035,16.100791375842075,-1205,1673,252,11.398434369528971
104,969,59250,-1885,58848,59263,15.35832868157571,19.834275886184905,12.974748289075183,-982,-587,-1571,15.578727262536926
-426,-1221,58157,-1960,59676,58339,13.102965158457756,15.453163203754368,15.695629432616276,821,-1225,-1316,12.595361175915317
